X,Y,Z,AX,AY,AZ
0.068321228,0.053115845,0.069969177,0.002197266,-0.013427734,0.914550781
-0.038490295,-0.038436890,-0.143653870,0.003662109,-0.009521484,0.914306641
-0.023231506,0.129409790,-0.067359924,0.004394531,-0.011230469,0.927001953
-0.175819397,0.709243774,-0.036842346,0.020996094,-0.006591797,0.853271484
-0.175819397,-0.191024780,-0.067359924,-0.013183594,-0.013916016,0.933837891
-0.191078186,-0.160507202,0.115745544,0.002929688,-0.014404297,0.909179688
0.129356384,0.785537720,0.024192810,0.003417969,-0.015136719,0.900634766
0.266685486,-0.603012085,0.039451599,0.000732422,-0.010009766,0.925781250
-0.099525452,0.236221313,-0.021583557,0.010009766,-0.013671875,0.931396484
0.007286072,0.098892212,-0.021583557,0.010742188,-0.011718750,0.906005859
0.098838806,-0.206283569,-0.097877502,-0.000976563,-0.012695313,0.917968750
-0.038490295,0.083633423,0.069969177,-0.000488281,-0.011718750,0.911376953
-0.099525452,-0.007919312,0.054710388,0.009277344,-0.010009766,0.907470703
-0.038490295,-0.053695679,-0.128395081,0.004150391,-0.012939453,0.919189453
-0.038490295,-0.038436890,0.039451599,0.002929688,-0.012451172,0.928466797
-0.114784241,-0.007919312,0.039451599,-0.001464844,-0.006835938,0.907958984
-0.130043030,0.037857056,0.054710388,0.001708984,-0.012207031,0.916259766
-0.297889709,-0.206283569,0.008934021,0.004638672,-0.011718750,0.922363281
0.007286072,0.190444946,0.054710388,-0.001464844,-0.012939453,0.920654297
-0.023231506,0.114151001,0.024192810,0.000976563,-0.013427734,0.913574219
0.007286072,0.037857056,0.039451599,0.004638672,-0.010009766,0.921386719
0.083580017,-0.236801147,-0.021583557,0.003417969,-0.012695313,0.916992188
0.007286072,-0.038436890,0.054710388,0.004394531,-0.011230469,0.921630859
-0.069007874,0.022598267,-0.082618713,-0.000488281,-0.011474609,0.913818359
0.053062439,-0.129989624,-0.113136292,0.004394531,-0.017578125,0.916503906
0.098838806,-0.053695679,-0.052101135,-0.001464844,-0.007812500,0.918212891
0.068321228,0.129409790,0.115745544,0.004150391,-0.012207031,0.920410156
0.037803650,0.068374634,-0.036842346,0.005371094,-0.016113281,0.919189453
-0.130043030,-0.023178101,-0.067359924,0.006103516,-0.012207031,0.915039063
-0.023231506,-0.023178101,-0.067359924,-0.002929688,-0.009033203,0.913330078
-0.069007874,0.083633423,-0.082618713,0.004638672,-0.007324219,0.916503906
-0.114784241,-0.023178101,0.008934021,0.002441406,-0.014404297,0.909179688
0.190391541,0.037857056,-0.128395081,0.006591797,-0.009277344,0.915039063
-0.084266663,-0.099472046,0.085227966,0.004638672,-0.012451172,0.911865234
0.083580017,-0.084213257,-0.021583557,0.005859375,-0.008056641,0.908935547
0.068321228,0.068374634,0.054710388,0.010253906,-0.013427734,0.927246094
-0.114784241,-0.007919312,0.008934021,0.001464844,-0.010253906,0.912597656
0.007286072,0.083633423,0.115745544,0.007324219,-0.012451172,0.912597656
-0.130043030,0.022598267,-0.143653870,0.003173828,-0.012451172,0.907714844
-0.145301819,-0.282577515,0.054710388,0.003173828,-0.016601563,0.907714844
-0.053749084,-0.114730835,0.008934021,0.006103516,-0.010253906,0.908935547
-0.053749084,-0.023178101,0.069969177,0.001953125,-0.013183594,0.916992188
0.236167908,0.083633423,0.146263123,0.000732422,-0.007568359,0.914062500
-0.191078186,-0.084213257,0.039451599,0.001708984,-0.012695313,0.912597656
0.220909119,0.068374634,0.100486755,0.002441406,-0.006347656,0.920166016
-0.023231506,-0.129989624,0.085227966,0.003173828,-0.007080078,0.927490234
-0.053749084,0.098892212,0.008934021,0.004394531,-0.011230469,0.911376953
-0.038490295,-0.038436890,0.131004333,0.003417969,-0.011230469,0.927490234
0.068321228,-0.038436890,0.085227966,0.004638672,-0.010009766,0.922119141
-0.053749084,-0.114730835,-0.052101135,0.003906250,-0.011962891,0.916992188
-0.221595764,-0.114730835,-0.067359924,0.005126953,-0.010253906,0.917724609
-0.084266663,-0.023178101,0.085227966,0.001708984,-0.015136719,0.916015625
0.022544861,0.068374634,-0.006324768,0.006347656,-0.012207031,0.922851563
0.129356384,0.022598267,0.024192810,0.005859375,-0.012695313,0.911865234
-0.084266663,-0.038436890,-0.067359924,0.010253906,-0.008544922,0.909179688
0.007286072,-0.099472046,-0.006324768,0.005371094,-0.011718750,0.916015625
-0.175819397,0.159927368,-0.006324768,0.001220703,-0.014892578,0.909423828
-0.236854553,0.022598267,0.085227966,0.006103516,-0.014648438,0.911865234
0.037803650,-0.129989624,0.008934021,0.002197266,-0.010742188,0.908447266
-0.007972717,-0.007919312,0.131004333,0.001220703,-0.011230469,0.915283203
0.022544861,-0.023178101,0.115745544,0.004882813,-0.010009766,0.912109375
-0.160560608,0.068374634,0.085227966,0.003417969,-0.004638672,0.910156250
-0.069007874,0.083633423,0.024192810,0.004150391,-0.013183594,0.908691406
0.175132751,-0.175765991,0.069969177,0.000976563,-0.012207031,0.915039063
0.159873962,-0.084213257,0.008934021,0.011230469,-0.013916016,0.908935547
0.037803650,-0.023178101,0.054710388,0.003662109,-0.006103516,0.916259766
-0.007972717,-0.038436890,0.100486755,0.008056641,-0.008789063,0.924316406
-0.023231506,0.037857056,0.039451599,0.002197266,-0.011718750,0.915039063
-0.069007874,0.068374634,0.069969177,0.002929688,-0.012695313,0.912597656
0.022544861,-0.252059937,0.146263123,0.001708984,-0.010253906,0.915039063
0.022544861,0.205703735,0.100486755,-0.000488281,-0.013916016,0.910156250
-0.007972717,0.159927368,-0.052101135,0.006347656,-0.009765625,0.916503906
0.159873962,-0.099472046,0.024192810,0.006591797,-0.007080078,0.912597656
0.022544861,-0.084213257,-0.097877502,0.004638672,-0.006347656,0.925537109
-0.007972717,0.022598267,-0.067359924,0.008544922,-0.012207031,0.917968750
-0.053749084,0.144668579,-0.036842346,0.003417969,-0.010253906,0.917724609
0.129356384,0.083633423,0.039451599,0.003417969,-0.010986328,0.913818359
0.037803650,0.159927368,0.039451599,0.008544922,-0.009033203,0.911865234
0.053062439,0.022598267,0.115745544,0.002685547,-0.007812500,0.917968750
0.007286072,0.098892212,0.039451599,-0.001953125,-0.012207031,0.915771484
0.144615173,-0.160507202,0.039451599,0.006347656,-0.014160156,0.919921875
0.098838806,0.098892212,-0.036842346,0.004882813,-0.013427734,0.918945313
0.068321228,-0.206283569,0.024192810,0.004638672,-0.008544922,0.914062500
0.007286072,-0.099472046,-0.082618713,0.003662109,-0.015136719,0.923583984
0.266685486,-0.068954468,-0.006324768,0.007568359,-0.015136719,0.912597656
-0.007972717,0.007339478,0.100486755,0.004638672,-0.009521484,0.923095703
0.068321228,-0.053695679,-0.082618713,0.000976563,-0.010986328,0.925292969
-0.175819397,-0.084213257,-0.021583557,0.002685547,-0.011474609,0.920166016
0.022544861,-0.023178101,0.008934021,0.006347656,-0.008300781,0.906005859
0.037803650,-0.145248413,-0.052101135,0.002929688,-0.007080078,0.913085938
-0.069007874,0.037857056,0.161521912,0.002441406,-0.014892578,0.921630859
0.053062439,0.159927368,0.069969177,-0.000732422,-0.008056641,0.916992188
0.053062439,0.007339478,-0.052101135,0.001220703,-0.013671875,0.915039063
0.068321228,0.098892212,-0.006324768,0.003662109,-0.015869141,0.911865234
0.144615173,-0.007919312,0.100486755,0.001708984,-0.014160156,0.907226563
-0.114784241,0.114151001,-0.158912659,0.001953125,-0.011474609,0.915527344
-0.069007874,-0.007919312,-0.067359924,0.004638672,-0.011718750,0.913574219
-0.069007874,-0.023178101,0.008934021,0.005371094,-0.012451172,0.913574219
-0.145301819,0.175186157,0.192039490,-0.000488281,-0.017578125,0.912109375
0.022544861,0.129409790,0.024192810,0.005126953,-0.010253906,0.922851563
0.098838806,0.129409790,-0.097877502,0.003417969,-0.013183594,0.913818359
0.068321228,-0.099472046,-0.036842346,0.004638672,-0.015380859,0.919433594
-0.206336975,-0.068954468,0.115745544,0.010009766,-0.009277344,0.911621094
0.114097595,0.053115845,0.024192810,0.005371094,-0.014160156,0.913818359
0.053062439,-0.007919312,0.100486755,-0.000244141,-0.012207031,0.912841797
0.007286072,-0.038436890,0.024192810,0.002685547,-0.012451172,0.912353516
-0.099525452,-0.053695679,-0.082618713,0.003662109,-0.014160156,0.915527344
-0.053749084,0.083633423,0.054710388,0.004150391,-0.011474609,0.922363281
0.022544861,0.007339478,0.039451599,0.001464844,-0.013916016,0.910156250
0.053062439,-0.068954468,0.024192810,0.003417969,-0.008300781,0.904785156
0.007286072,-0.007919312,-0.113136292,0.006347656,-0.015136719,0.911865234
0.068321228,-0.114730835,0.039451599,0.008056641,-0.007080078,0.906250000
-0.007972717,0.236221313,-0.067359924,0.002929688,-0.011962891,0.912841797
0.114097595,-0.191024780,0.192039490,0.006591797,-0.018066406,0.919433594
-0.160560608,0.236221313,0.008934021,0.005126953,-0.011718750,0.923828125
0.068321228,-0.068954468,0.008934021,0.007324219,-0.014648438,0.909667969
-0.145301819,0.648208618,0.039451599,0.011718750,-0.007568359,0.913085938
-0.160560608,-0.313095093,0.039451599,0.005859375,-0.008544922,0.915283203
0.159873962,0.434585571,0.008934021,0.003417969,-0.016601563,0.911865234
0.297203064,0.343032837,0.039451599,0.001464844,-0.018310547,0.903564453
0.083580017,-0.725082397,0.054710388,-0.000488281,-0.007568359,0.925292969
0.037803650,0.373550415,0.069969177,0.010009766,-0.015136719,0.914550781
0.281944275,-0.343612671,0.085227966,-0.000244141,-0.015380859,0.915039063
-0.114784241,-0.160507202,0.115745544,0.000000000,-0.012207031,0.924072266
-0.191078186,-0.038436890,0.100486755,0.002685547,-0.011230469,0.910644531
0.098838806,-0.206283569,-0.113136292,0.002929688,-0.012695313,0.909912109
-0.007972717,0.098892212,-0.082618713,0.001953125,-0.012695313,0.920898438
0.037803650,-0.007919312,0.008934021,0.002441406,-0.009765625,0.910644531
0.129356384,-0.053695679,-0.052101135,-0.001464844,-0.008300781,0.913574219
0.022544861,0.083633423,-0.006324768,-0.000244141,-0.018554688,0.916015625
-0.175819397,-0.007919312,-0.021583557,0.006103516,-0.016845703,0.923583984
0.251426697,0.098892212,0.008934021,0.004882813,-0.015136719,0.916259766
-0.023231506,-0.007919312,-0.143653870,0.001708984,-0.009033203,0.911132813
0.037803650,-0.068954468,0.131004333,0.001220703,-0.015136719,0.915527344
-0.023231506,-0.053695679,0.039451599,0.006347656,-0.010986328,0.920898438
-0.099525452,-0.114730835,-0.097877502,0.003417969,-0.010253906,0.918945313
-0.069007874,-0.007919312,-0.021583557,0.005859375,-0.011718750,0.919921875
0.037803650,0.022598267,0.008934021,0.003662109,-0.016113281,0.911865234
0.068321228,-0.129989624,-0.052101135,0.003417969,-0.019287109,0.919921875
-1.045570374,-1.472763062,-0.128395081,0.018310547,-0.019287109,0.818847656
0.617637634,1.792617798,0.558250427,-0.058349609,0.015625000,1.046630859
-0.160560608,-0.267318726,-0.158912659,0.001953125,-0.023193359,0.952392578
-0.160560608,-0.892929077,-0.082618713,-0.024169922,-0.000732422,0.989746094
0.190391541,-0.114730835,0.024192810,0.019287109,-0.017089844,0.905029297
0.190391541,0.159927368,-0.052101135,0.007324219,-0.011474609,0.907958984
0.098838806,-0.267318726,0.054710388,-0.008544922,-0.012451172,0.922607422
-0.114784241,0.114151001,0.161521912,0.012695313,-0.019531250,0.912109375
-0.084266663,-0.191024780,-0.097877502,0.002441406,-0.015136719,0.909179688
-0.206336975,-0.160507202,-0.021583557,0.000488281,-0.011718750,0.909667969
0.342979431,0.098892212,0.024192810,0.007324219,-0.013916016,0.910400391
-0.679359436,-2.281478882,0.161521912,-0.028564453,-0.003906250,0.979248047
0.465049744,1.685806274,0.176780701,0.040039063,-0.012451172,0.856445313
0.007286072,0.373550415,-0.006324768,0.000488281,-0.009277344,0.910644531
-0.297889709,-0.358871460,0.024192810,-0.002197266,-0.007568359,0.911865234
-0.038490295,0.129409790,0.024192810,0.004882813,-0.005371094,0.913085938
0.053062439,-0.068954468,0.131004333,0.005859375,-0.010253906,0.907714844
0.037803650,-0.053695679,-0.006324768,0.001464844,-0.009033203,0.907958984
0.114097595,0.175186157,-0.204689026,-0.002685547,-0.007080078,0.913574219
0.205650330,-0.084213257,-0.082618713,0.002441406,-0.010986328,0.927734375
-0.145301819,-0.816635132,-0.097877502,-0.011962891,-0.011718750,0.958984375
0.327720642,0.739761353,0.085227966,0.009765625,-0.011718750,0.908691406
0.190391541,0.205703735,0.024192810,0.008300781,-0.015136719,0.913574219
-0.130043030,-0.007919312,0.161521912,0.001464844,-0.010253906,0.919677734
-0.038490295,-0.129989624,-0.036842346,0.004638672,-0.008544922,0.915283203
-0.282630920,0.037857056,-0.067359924,0.003662109,-0.016601563,0.918945313
0.190391541,-0.129989624,-0.006324768,0.002197266,-0.010009766,0.908203125
0.114097595,0.312515259,0.115745544,0.011962891,-0.011962891,0.913330078
-0.084266663,-0.526718140,-0.113136292,-0.007080078,-0.012451172,0.912109375
-0.175819397,-0.007919312,0.085227966,0.001708984,-0.015380859,0.917968750
0.098838806,0.037857056,-0.052101135,0.000488281,-0.009765625,0.918701172
0.037803650,0.022598267,-0.021583557,0.004638672,-0.009033203,0.913818359
0.037803650,-0.068954468,-0.021583557,0.007324219,-0.013183594,0.922119141
0.053062439,0.083633423,0.008934021,0.003662109,-0.015869141,0.918457031
-0.007972717,0.098892212,-0.052101135,0.003906250,-0.009765625,0.907958984
-0.084266663,-0.053695679,0.039451599,-0.002685547,-0.015869141,0.910888672
0.022544861,0.114151001,-0.036842346,0.001953125,-0.012207031,0.924072266
-0.038490295,0.098892212,-0.174171448,0.003662109,-0.010986328,0.913330078
-0.007972717,0.098892212,0.054710388,0.010253906,-0.010742188,0.907714844
-0.114784241,-0.099472046,0.024192810,0.003173828,-0.010009766,0.912109375
0.129356384,0.007339478,-0.067359924,-0.000976563,-0.013671875,0.915039063
0.068321228,0.007339478,-0.021583557,0.006591797,-0.010498047,0.920410156
-0.130531311,0.266738892,0.115745544,0.005859375,-0.010009766,0.900146484
-0.023231506,-0.007919312,0.069969177,0.003417969,-0.012451172,0.916503906
-0.069007874,-0.129989624,0.069969177,0.006591797,-0.010009766,0.922851563
-0.007972717,0.098892212,-0.143653870,0.001953125,-0.012207031,0.916748047
0.190391541,0.083633423,-0.082618713,-0.002197266,-0.012695313,0.917968750
-0.130043030,0.022598267,-0.006324768,0.002929688,-0.020019531,0.910644531
0.083580017,0.159927368,0.100486755,0.006835938,-0.007812500,0.913574219
0.037803650,-0.175765991,-0.097877502,-0.002197266,-0.013427734,0.915527344
-0.023231506,-0.099472046,-0.021583557,0.000000000,-0.009765625,0.915527344
-0.114784241,0.007339478,-0.036842346,0.001464844,-0.016357422,0.906982422
0.068321228,0.007339478,0.115745544,0.006347656,-0.013671875,0.921386719
0.037803650,-0.023178101,0.100486755,0.004638672,-0.011230469,0.926269531
0.129356384,-0.068954468,0.024192810,0.004882813,-0.013427734,0.910888672
0.083580017,-0.114730835,0.024192810,-0.002685547,-0.010253906,0.910156250
-0.053749084,0.022598267,0.008934021,-0.001464844,-0.006835938,0.911621094
0.022544861,-0.053695679,0.176780701,-0.000976563,-0.011230469,0.923828125
0.236167908,-0.129989624,0.039451599,-0.002441406,-0.014892578,0.912841797
0.083580017,-0.068954468,0.069969177,0.001708984,-0.015380859,0.916259766
0.068321228,-0.191024780,0.024192810,0.002197266,-0.010253906,0.925292969
0.144615173,-0.160507202,0.085227966,0.005126953,-0.012207031,0.914306641
0.083580017,0.083633423,-0.036842346,-0.003662109,-0.016601563,0.927001953
0.129356384,0.037857056,-0.113136292,0.007080078,-0.009765625,0.912841797
-0.084266663,0.053115845,0.024192810,0.008544922,-0.012451172,0.911376953
0.098838806,0.236221313,0.069969177,0.005859375,-0.006591797,0.919433594
0.022544861,-0.099472046,-0.113136292,0.003662109,-0.009765625,0.919189453
-0.038490295,0.114151001,0.024192810,0.003173828,-0.014648438,0.917480469
-0.130043030,0.068374634,0.176780701,0.002441406,-0.011962891,0.926025391
-0.053749084,-0.053695679,0.054710388,0.007324219,-0.009277344,0.912109375
-0.069007874,-0.191024780,-0.006324768,0.001220703,-0.006835938,0.919433594
0.098838806,-0.084213257,0.008934021,0.008789063,-0.014404297,0.914550781
0.266685486,-0.068954468,0.176780701,0.004394531,-0.013916016,0.911132813
-0.038490295,-0.191024780,-0.097877502,0.007324219,-0.010498047,0.917724609
0.037803650,-0.038436890,0.100486755,0.007080078,-0.012207031,0.910156250
0.007286072,-0.175765991,0.131004333,0.007812500,-0.006591797,0.920410156
-0.038490295,0.022598267,-0.006324768,0.001464844,-0.014892578,0.914062500
0.236167908,0.053115845,-0.067359924,0.002929688,-0.010986328,0.905029297
0.053062439,-0.114730835,0.176780701,0.007568359,-0.016113281,0.912353516
-0.084266663,0.144668579,0.115745544,0.006347656,-0.014404297,0.912353516
0.053062439,0.022598267,-0.128395081,0.002685547,-0.010253906,0.913085938
-0.099525452,-0.221542358,-0.113136292,0.007812500,-0.010253906,0.922851563
0.037803650,0.129409790,0.008934021,0.002929688,-0.016113281,0.916015625
-0.023231506,-0.007919312,0.039451599,0.001220703,-0.015869141,0.920898438
0.114097595,0.159927368,-0.143653870,0.004638672,-0.010986328,0.904052734
0.007286072,-0.038436890,0.115745544,-0.001464844,-0.019775391,0.909179688
-0.053749084,0.007339478,0.161521912,0.005615234,-0.016601563,0.921875000
-0.007972717,0.022598267,0.176780701,0.004150391,-0.007324219,0.916748047
0.098838806,0.022598267,0.054710388,-0.002685547,-0.017089844,0.918945313
0.083580017,-0.053695679,0.054710388,-0.003173828,-0.009521484,0.921142578
0.037803650,-0.038436890,-0.113136292,0.002929688,-0.014404297,0.911621094
-0.007972717,0.022598267,0.024192810,0.007080078,-0.009277344,0.913818359
0.007286072,-0.007919312,0.024192810,0.001220703,-0.015380859,0.920654297
-0.084266663,-0.175765991,0.161521912,0.002685547,-0.010498047,0.914062500
-0.114784241,-0.023178101,-0.021583557,0.006347656,-0.012451172,0.917236328
0.007286072,-0.145248413,-0.082618713,0.006835938,-0.011718750,0.906494141
0.022544861,-0.084213257,0.039451599,0.010253906,-0.011230469,0.918457031
0.175132751,0.312515259,-0.082618713,0.003173828,-0.005126953,0.907226563
0.114097595,0.175186157,-0.036842346,0.001464844,-0.013183594,0.914794922
-0.069007874,0.037857056,-0.174171448,0.003662109,-0.013916016,0.913574219
-0.038490295,0.037857056,0.085227966,0.003662109,-0.011718750,0.911621094
-0.053749084,0.159927368,0.039451599,0.001953125,-0.017089844,0.916503906
-0.007972717,-0.038436890,-0.052101135,0.005615234,-0.015380859,0.919433594
0.251426697,-0.007919312,-0.067359924,0.003662109,-0.017578125,0.910400391
0.083580017,-0.084213257,0.039451599,0.004150391,-0.012939453,0.924560547
0.144615173,0.037857056,0.115745544,0.006591797,-0.012939453,0.913574219
-0.023231506,0.114151001,-0.113136292,0.000000000,-0.014892578,0.918457031
-0.053749084,-0.023178101,0.008934021,0.005126953,-0.010498047,0.916259766
-0.038490295,0.022598267,-0.006324768,-0.004882813,-0.011474609,0.907470703
0.144615173,-0.068954468,-0.021583557,0.000732422,-0.011962891,0.916992188
0.007286072,0.098892212,0.131004333,0.002929688,-0.013183594,0.906494141
0.007286072,-0.084213257,0.131004333,0.006591797,-0.010986328,0.918945313
0.144615173,0.037857056,-0.067359924,0.000244141,-0.010498047,0.914062500
0.129356384,-0.053695679,-0.006324768,0.000488281,-0.012207031,0.915771484
0.068321228,0.083633423,-0.052101135,0.007568359,-0.014404297,0.907714844
0.053062439,0.114151001,0.115745544,0.001953125,-0.009033203,0.922119141
0.083580017,-0.023178101,0.024192810,0.005859375,-0.014892578,0.913330078
0.053062439,-0.068954468,-0.128395081,0.007080078,-0.012451172,0.920654297
-0.023231506,-0.175765991,0.115745544,0.004394531,-0.007324219,0.910644531
-0.114784241,0.083633423,0.085227966,0.010498047,-0.010498047,0.913574219
-0.130043030,0.068374634,0.069969177,0.006103516,-0.012695313,0.901855469
0.022544861,-0.038436890,-0.082618713,-0.002441406,-0.010742188,0.923828125
-0.038490295,0.037857056,0.115745544,0.009765625,-0.007812500,0.916748047
-0.038490295,0.220962524,-0.082618713,-0.001220703,-0.008300781,0.917480469
0.220909119,0.037857056,-0.052101135,0.005859375,-0.013183594,0.913574219
0.175132751,0.129409790,0.039451599,0.007080078,-0.013427734,0.917480469
-0.069007874,-0.221542358,-0.006324768,0.001708984,-0.016113281,0.908203125
-0.007972717,-0.068954468,-0.052101135,0.001953125,-0.012939453,0.912841797
-0.007972717,0.251480103,-0.082618713,0.002929688,-0.008544922,0.917236328
0.007286072,0.053115845,0.085227966,0.004150391,-0.010498047,0.915039063
0.068321228,-0.282577515,0.115745544,0.003417969,-0.012451172,0.918945313
-0.084266663,0.037857056,-0.021583557,0.005615234,-0.013427734,0.919433594
0.083580017,-0.175765991,-0.021583557,0.000000000,-0.012207031,0.911621094
-0.038490295,-0.007919312,-0.097877502,0.005859375,-0.007324219,0.925537109
-0.191078186,-0.129989624,-0.143653870,-0.001464844,-0.014404297,0.917480469
-0.007972717,-0.053695679,-0.082618713,0.009765625,-0.014160156,0.916015625
-0.084266663,0.007339478,0.008934021,0.003662109,-0.012695313,0.908935547
0.129356384,-0.007919312,0.131004333,-0.002929688,-0.013183594,0.914794922
0.022544861,-0.099472046,0.024192810,0.004394531,-0.017822266,0.913818359
-0.084266663,0.053115845,-0.052101135,0.001464844,-0.011474609,0.906494141
0.114097595,0.129409790,-0.006324768,0.003662109,-0.009765625,0.909423828
0.007286072,0.022598267,0.008934021,0.000000000,-0.011718750,0.912109375
-0.023231506,-0.252059937,-0.097877502,0.001953125,-0.010009766,0.916259766
0.098838806,0.114151001,-0.128395081,0.003662109,-0.006835938,0.915283203
-0.053749084,0.022598267,-0.128395081,0.007568359,-0.008544922,0.919677734
-0.084266663,-0.221542358,-0.097877502,0.007568359,-0.019531250,0.911621094
0.129356384,0.007339478,0.024192810,0.007812500,-0.017578125,0.909667969
0.037803650,0.083633423,0.039451599,0.007080078,-0.016113281,0.906738281
0.114097595,-0.084213257,0.069969177,0.006103516,-0.012451172,0.910400391
-0.023231506,0.022598267,0.008934021,0.002929688,-0.011718750,0.917480469
-0.053749084,0.022598267,-0.189430237,0.004394531,-0.014892578,0.915283203
-0.053749084,0.129409790,-0.128395081,0.001708984,-0.012451172,0.914062500
-0.130043030,-0.023178101,0.161521912,-0.000244141,-0.010009766,0.911132813
-0.007972717,0.190444946,-0.006324768,0.004150391,-0.009277344,0.918212891
0.053062439,0.129409790,0.039451599,0.004882813,-0.013427734,0.920898438
0.114097595,0.022598267,-0.067359924,0.005859375,-0.015136719,0.917724609
-0.053749084,0.053115845,-0.021583557,0.004394531,-0.007812500,0.906982422
0.007286072,-0.145248413,0.008934021,0.002197266,-0.011718750,0.919921875
-0.069007874,0.190444946,0.085227966,0.007568359,-0.016601563,0.916992188
0.114097595,-0.023178101,-0.006324768,0.003173828,-0.010253906,0.922607422
-0.114784241,-0.068954468,0.024192810,0.000488281,-0.020507813,0.918945313
-0.069007874,-0.068954468,-0.158912659,0.002929688,-0.009033203,0.921142578
0.007286072,0.114151001,-0.021583557,0.011962891,-0.013427734,0.906005859
-0.007972717,-0.221542358,-0.067359924,0.002685547,-0.010986328,0.917724609
0.007286072,0.098892212,0.085227966,0.012695313,-0.013427734,0.916259766
-0.007972717,0.068374634,0.008934021,0.004638672,-0.010742188,0.905029297
-0.114784241,0.144668579,0.008934021,0.000488281,-0.014892578,0.922363281
-0.007972717,-0.068954468,-0.006324768,-0.001953125,-0.012207031,0.917236328
-0.114784241,0.053115845,-0.052101135,0.003417969,-0.008789063,0.922851563
-0.007972717,-0.145248413,0.100486755,0.003173828,-0.015625000,0.926269531
0.083580017,0.022598267,-0.036842346,-0.001464844,-0.008789063,0.913330078
-0.038490295,0.159927368,-0.113136292,-0.002685547,-0.013183594,0.917724609
0.053062439,0.129409790,-0.052101135,-0.001708984,-0.010498047,0.910400391
-0.084266663,0.083633423,0.008934021,0.002441406,-0.015380859,0.918457031
-0.053749084,-0.038436890,0.100486755,-0.000732422,-0.015869141,0.915527344
0.098838806,-0.053695679,0.024192810,0.004638672,-0.010498047,0.908691406
0.053062439,-0.068954468,0.024192810,0.001464844,-0.011230469,0.911132813
-0.038490295,0.007339478,0.039451599,-0.003417969,-0.014404297,0.920654297
0.190391541,-0.068954468,-0.113136292,0.005615234,-0.020507813,0.909179688
0.053062439,-0.007919312,0.008934021,-0.005615234,-0.012939453,0.916748047
-0.007972717,0.022598267,0.085227966,0.002685547,-0.013671875,0.925292969
-0.053749084,-0.099472046,-0.021583557,-0.000732422,-0.016357422,0.913818359
-0.175819397,-0.038436890,0.039451599,0.001220703,-0.012207031,0.917968750
0.083580017,-0.007919312,0.008934021,0.004882813,-0.010253906,0.911865234
0.114097595,0.098892212,0.115745544,0.001464844,-0.015136719,0.912841797
0.053062439,0.022598267,-0.052101135,0.003662109,-0.014892578,0.919433594
0.022544861,0.022598267,0.069969177,0.005126953,-0.011474609,0.912353516
0.007286072,0.053115845,0.054710388,0.003417969,-0.016357422,0.917724609
0.068321228,0.068374634,-0.036842346,0.006103516,-0.013916016,0.915283203
0.022544861,-0.252059937,-0.067359924,0.006103516,-0.015869141,0.915527344
-0.038490295,0.266738892,0.024192810,0.004638672,-0.010498047,0.916015625
0.098838806,-0.038436890,-0.097877502,0.004150391,-0.012451172,0.911376953
-0.130043030,-0.145248413,0.069969177,0.006835938,-0.013183594,0.910644531
-0.023231506,0.022598267,0.039451599,0.012695313,-0.010253906,0.922119141
-0.007972717,0.037857056,0.039451599,0.000976563,-0.015869141,0.909912109
-0.023231506,0.037857056,0.131004333,0.002197266,-0.011962891,0.911376953
-0.007972717,-0.099472046,0.054710388,-0.001220703,-0.011962891,0.926025391
0.129356384,-0.038436890,0.069969177,0.004394531,-0.014892578,0.911376953
-0.084266663,0.007339478,-0.082618713,0.000244141,-0.014892578,0.917968750
-0.038490295,-0.129989624,0.115745544,0.004394531,-0.009277344,0.920654297
0.068321228,0.068374634,0.039451599,0.004150391,-0.014404297,0.917236328
0.037803650,-0.160507202,-0.113136292,0.001220703,-0.007812500,0.915283203
0.083580017,0.083633423,-0.006324768,0.007324219,-0.009765625,0.918457031
-0.023231506,0.053115845,0.039451599,0.007324219,-0.012695313,0.916748047
0.007286072,0.144668579,-0.113136292,-0.000976563,-0.013427734,0.914794922
0.114097595,-0.053695679,-0.052101135,0.004638672,-0.011474609,0.908447266
-0.038490295,-0.129989624,-0.021583557,0.005126953,-0.012207031,0.915771484
0.007286072,-0.023178101,-0.021583557,0.004882813,-0.012451172,0.909423828
0.037803650,-0.206283569,0.024192810,0.003662109,-0.014160156,0.921386719
0.175132751,0.022598267,0.054710388,0.002197266,-0.006591797,0.911865234
0.159873962,0.205703735,-0.067359924,0.000488281,-0.010986328,0.911376953
0.083580017,0.022598267,0.024192810,0.002929688,-0.014160156,0.910644531
0.175132751,-0.038436890,-0.082618713,0.004394531,-0.010498047,0.921630859
-0.023231506,-0.068954468,0.115745544,0.007812500,-0.014404297,0.916748047
-0.175819397,0.053115845,0.054710388,0.008789063,-0.012207031,0.914794922
0.053062439,0.098892212,0.115745544,0.006835938,-0.014160156,0.919677734
-0.069007874,0.129409790,0.131004333,0.004638672,-0.017089844,0.912597656
0.037803650,0.114151001,-0.082618713,0.004150391,-0.013916016,0.920410156
-0.267372131,0.266738892,-0.097877502,0.001953125,-0.009765625,0.916748047
0.114097595,-0.053695679,-0.006324768,0.007324219,-0.008544922,0.907958984
-0.130043030,0.068374634,0.161521912,0.001464844,-0.011718750,0.908691406
-0.130043030,0.022598267,0.161521912,0.001464844,-0.009277344,0.917236328
-0.007972717,0.129409790,-0.143653870,0.004882813,-0.015625000,0.916992188
-0.099525452,-0.007919312,0.069969177,0.007080078,-0.013916016,0.918701172
0.022544861,0.022598267,-0.052101135,0.003417969,-0.010986328,0.910644531
-0.099525452,0.068374634,-0.052101135,-0.000244141,-0.012695313,0.928466797
-0.084266663,0.114151001,-0.021583557,0.006347656,-0.012207031,0.916015625
0.053062439,0.053115845,0.024192810,0.008056641,-0.010986328,0.912109375
-0.007972717,0.190444946,-0.067359924,0.003906250,-0.016601563,0.912109375
0.068321228,-0.023178101,-0.021583557,0.007812500,-0.008300781,0.920654297
-0.114784241,-0.068954468,-0.021583557,0.003906250,-0.012695313,0.919433594
0.037803650,-0.160507202,-0.101196289,0.000000000,-0.015136719,0.917236328
-0.160560608,0.159927368,0.008934021,0.008789063,-0.011962891,0.911621094
-0.114784241,-0.129989624,-0.204689026,-0.003417969,-0.016113281,0.920410156
0.098838806,-0.068954468,-0.036842346,0.001464844,-0.012207031,0.914794922
0.068321228,0.007339478,0.069969177,0.002197266,-0.011718750,0.916015625
-0.053749084,0.022598267,-0.006324768,0.010498047,-0.013916016,0.919189453
-0.069007874,-0.114730835,0.008934021,0.000000000,-0.007568359,0.915283203
0.007286072,-0.007919312,0.069969177,-0.001220703,-0.012939453,0.922119141
-0.038490295,-0.114730835,-0.097877502,0.005371094,-0.010986328,0.918945313
0.007286072,0.098892212,0.039451599,-0.002441406,-0.012207031,0.913330078
0.022544861,0.007339478,-0.128395081,0.001464844,-0.016845703,0.905517578
0.083580017,-0.068954468,0.054710388,0.003417969,-0.009521484,0.915283203
-0.160560608,0.007339478,0.054710388,0.006103516,-0.017089844,0.912841797
0.037803650,0.022598267,-0.036842346,0.000244141,-0.015625000,0.918212891
0.007286072,-0.068954468,0.100486755,0.001953125,-0.011718750,0.930908203
-0.130043030,0.022598267,-0.097877502,0.005859375,-0.011718750,0.915527344
-0.099525452,0.022598267,-0.082618713,0.005371094,-0.015136719,0.917480469
-0.007972717,-0.206283569,0.131004333,0.006103516,-0.013427734,0.913330078
0.083580017,-0.114730835,0.069969177,-0.001220703,-0.012207031,0.907958984
0.068321228,0.068374634,0.024192810,0.002929688,-0.012939453,0.911376953
-0.145301819,0.037857056,-0.021583557,0.004882813,-0.010498047,0.920654297
-0.023231506,0.175186157,0.222557068,0.005859375,-0.011962891,0.913818359
-0.023231506,-0.038436890,-0.174171448,0.007080078,-0.009277344,0.912597656
0.022544861,-0.023178101,-0.082618713,0.006591797,-0.010986328,0.917724609
-0.069007874,0.053115845,-0.036842346,0.006103516,-0.009277344,0.907470703
0.053062439,0.007339478,0.039451599,0.005126953,-0.012207031,0.912597656
0.159873962,-0.038436890,-0.006324768,0.007324219,-0.011230469,0.917236328
-0.053749084,-0.084213257,0.161521912,-0.001220703,-0.010986328,0.911132813
-0.130043030,-0.099472046,-0.006324768,0.005615234,-0.005615234,0.909667969
0.098838806,-0.053695679,0.024192810,0.000976563,-0.008056641,0.920166016
-0.114784241,0.022598267,0.069969177,0.006591797,-0.012207031,0.918945313
0.037803650,-0.007919312,-0.021583557,0.004638672,-0.013916016,0.915039063
-0.038490295,-0.053695679,0.085227966,0.002929688,-0.018554688,0.924072266
-0.023231506,-0.084213257,-0.021583557,-0.001220703,-0.008789063,0.905517578
0.053062439,0.022598267,-0.021583557,0.001464844,-0.009521484,0.915039063
0.022544861,0.098892212,-0.006324768,0.008544922,-0.013427734,0.916503906
-0.145301819,0.022598267,-0.082618713,0.008789063,-0.012207031,0.910644531
0.037803650,-0.191024780,0.039451599,0.000732422,-0.012207031,0.914550781
0.098838806,-0.282577515,0.054710388,0.001708984,-0.009277344,0.929443359
0.022544861,-0.023178101,-0.082618713,0.003417969,-0.013916016,0.909423828
-0.084266663,-0.099472046,0.054710388,0.004638672,-0.015136719,0.911132813
-0.099525452,0.022598267,-0.097877502,-0.000488281,-0.017578125,0.908203125
-0.130043030,-0.114730835,-0.036842346,0.000000000,-0.008789063,0.916015625
-0.099525452,-0.191024780,0.085227966,0.004882813,-0.019287109,0.910644531
-0.023231506,0.129409790,0.085227966,0.002929688,-0.018066406,0.916992188
0.098838806,0.022598267,0.024192810,0.004882813,-0.012451172,0.922119141
0.022544861,0.083633423,0.039451599,0.004150391,-0.018310547,0.918945313
-0.206336975,0.175186157,0.039451599,0.000732422,-0.017089844,0.908203125
0.175132751,0.022598267,-0.021583557,0.003906250,-0.018066406,0.923339844
0.083580017,0.068374634,-0.052101135,-0.000488281,-0.012451172,0.910156250
-0.038490295,-0.007919312,0.024192810,0.006591797,-0.013671875,0.907714844
-0.038490295,0.007339478,0.008934021,0.013183594,-0.014648438,0.920410156
-0.099525452,-0.084213257,0.054710388,0.003173828,-0.013427734,0.907714844
-0.099525452,-0.068954468,0.054710388,0.010009766,-0.009765625,0.919433594
-0.053749084,-0.084213257,0.069969177,0.004150391,-0.011962891,0.911376953
0.083580017,0.068374634,-0.036842346,0.001220703,-0.012695313,0.911621094
0.068321228,0.022598267,-0.021583557,0.007812500,-0.007812500,0.922851563
0.190391541,0.083633423,-0.036842346,-0.000976563,-0.014404297,0.911865234
0.175132751,-0.053695679,0.146263123,0.008789063,-0.013916016,0.910156250
-0.130043030,-0.007919312,0.115745544,0.006591797,-0.013916016,0.916992188
-0.084266663,-0.145248413,0.054710388,0.005126953,-0.008789063,0.913574219
-0.023231506,-0.129989624,-0.021583557,0.000000000,-0.018554688,0.909667969
-0.145301819,0.068374634,0.008934021,0.000732422,-0.013427734,0.922851563
0.007286072,0.159927368,-0.021583557,0.004882813,-0.013427734,0.920898438
-0.023231506,0.068374634,0.039451599,0.005126953,-0.013183594,0.914794922
0.022544861,0.098892212,-0.006324768,0.003417969,-0.016113281,0.911132813
-0.038490295,-0.114730835,0.131004333,0.003662109,-0.012695313,0.920898438
0.037803650,0.129409790,0.024192810,0.001464844,-0.010742188,0.920166016
0.114097595,0.053115845,0.024192810,0.001708984,-0.017089844,0.920898438
-0.023231506,0.220962524,0.146263123,0.003906250,-0.011962891,0.905761719
-0.221595764,-0.053695679,-0.021583557,-0.001220703,-0.011962891,0.914794922
-0.053749084,0.037857056,-0.067359924,0.003906250,-0.011474609,0.914306641
0.251426697,-0.084213257,0.222557068,0.007324219,-0.013183594,0.916015625
-0.069007874,0.083633423,-0.036842346,0.001464844,-0.012695313,0.915527344
0.007286072,0.037857056,0.100486755,0.005859375,-0.012939453,0.907226563
0.144615173,0.022598267,0.115745544,0.005615234,-0.015869141,0.917480469
0.083580017,0.037857056,0.115745544,-0.001220703,-0.011230469,0.910400391
0.037803650,0.220962524,-0.036842346,0.002685547,-0.012207031,0.910400391
0.114097595,0.022598267,0.115745544,0.006591797,-0.009765625,0.906005859
0.022544861,-0.038436890,0.008934021,0.008789063,-0.016601563,0.912597656
0.129356384,0.083633423,-0.036842346,0.008056641,-0.009033203,0.905273438
0.220909119,-0.145248413,0.115745544,0.004394531,-0.015380859,0.916503906
0.007286072,-0.068954468,0.054710388,0.000244141,-0.011718750,0.920410156
-0.084266663,0.007339478,0.039451599,0.005371094,-0.011474609,0.914794922
-0.175819397,-0.068954468,-0.036842346,0.005126953,-0.009765625,0.922363281
-0.038490295,0.144668579,-0.006324768,0.007812500,-0.017089844,0.912597656
-0.023231506,0.007339478,-0.036842346,0.008789063,-0.014892578,0.917968750
0.022544861,-0.068954468,0.039451599,0.004638672,-0.010742188,0.916992188
-0.099525452,0.083633423,-0.036842346,-0.000976563,-0.015625000,0.914306641
0.098838806,0.053115845,0.024192810,0.003906250,-0.011230469,0.919189453
0.007286072,0.144668579,-0.143653870,0.007812500,-0.009277344,0.906250000
-0.053749084,0.007339478,0.085227966,0.005859375,-0.010009766,0.913574219
-0.282630920,0.144668579,-0.052101135,0.004882813,-0.007812500,0.918212891
-0.114784241,0.236221313,-0.006324768,0.007812500,-0.010009766,0.915771484
-0.053749084,0.114151001,-0.097877502,0.006835938,-0.008789063,0.913574219
0.037803650,-0.068954468,0.069969177,0.011230469,-0.012939453,0.911865234
0.007286072,-0.007919312,0.069969177,0.007080078,-0.006347656,0.916748047
-0.023231506,0.053115845,-0.052101135,0.003173828,-0.015136719,0.916748047
-0.130043030,-0.145248413,0.069969177,0.010498047,-0.017822266,0.921142578
0.175132751,0.022598267,0.008934021,0.003173828,-0.014404297,0.911376953
0.007286072,-0.145248413,-0.128395081,0.002197266,-0.010009766,0.906738281
0.068321228,0.098892212,-0.006324768,0.000732422,-0.016113281,0.909667969
-0.130043030,0.098892212,0.024192810,0.002197266,-0.012207031,0.912597656
0.159873962,-0.145248413,-0.052101135,0.006835938,-0.011230469,0.922851563
-0.084266663,0.083633423,0.085227966,0.006591797,-0.013427734,0.916015625
0.098838806,-0.068954468,-0.021583557,0.006835938,-0.010742188,0.909667969
-0.007972717,-0.129989624,-0.006324768,0.004150391,-0.012939453,0.910644531
0.007286072,-0.068954468,0.039451599,0.007324219,-0.014404297,0.912109375
0.251426697,0.159927368,-0.006324768,0.007324219,-0.018798828,0.913818359
0.037803650,0.022598267,0.024192810,0.004882813,-0.010009766,0.917480469
-0.023231506,-0.084213257,-0.082618713,0.002685547,-0.009521484,0.915039063
0.007286072,-0.023178101,0.085227966,0.003173828,-0.007812500,0.915283203
0.053062439,-0.007919312,0.085227966,0.008300781,-0.013916016,0.917724609
-0.023231506,-0.007919312,-0.158912659,0.008300781,-0.009033203,0.915527344
-0.038490295,-0.175765991,-0.006324768,0.000000000,-0.012451172,0.921142578
0.129356384,0.007339478,0.054710388,-0.000732422,-0.012695313,0.909667969
-0.023231506,0.037857056,0.100486755,0.000732422,-0.013183594,0.916503906
0.022544861,0.022598267,-0.052101135,0.008544922,-0.010742188,0.917236328
0.037803650,0.083633423,-0.036842346,0.009765625,-0.010253906,0.919189453
-0.023231506,-0.007919312,0.085227966,-0.001220703,-0.012451172,0.916503906
0.098838806,0.068374634,-0.143653870,0.003417969,-0.010498047,0.913085938
0.037803650,0.083633423,-0.021583557,-0.000976563,-0.012451172,0.916259766
-0.145301819,0.098892212,-0.036842346,0.005859375,-0.007080078,0.911621094
0.098838806,-0.099472046,-0.097877502,0.001464844,-0.012451172,0.925048828
0.007286072,0.053115845,0.008934021,0.002441406,-0.016845703,0.914550781
0.022544861,-0.053695679,0.085227966,-0.001953125,-0.010009766,0.914306641
0.037803650,0.007339478,0.039451599,0.000488281,-0.013427734,0.916503906
0.007286072,-0.023178101,0.054710388,0.003417969,-0.011230469,0.917968750
0.022544861,0.022598267,0.024192810,0.001953125,-0.009765625,0.913574219
-0.053749084,-0.084213257,0.176780701,0.000732422,-0.012207031,0.908447266
0.053062439,-0.053695679,0.054710388,0.003417969,-0.015869141,0.910156250
0.053062439,-0.007919312,0.085227966,0.001708984,-0.010742188,0.904785156
-0.221595764,0.068374634,0.085227966,0.000488281,-0.012695313,0.915771484
-0.038490295,-0.175765991,-0.082618713,0.004394531,-0.011962891,0.915283203
0.129356384,0.007339478,0.115745544,0.004150391,-0.016845703,0.908203125
0.037803650,-0.023178101,0.100486755,0.005371094,-0.013183594,0.914550781
-0.175819397,-0.068954468,-0.036842346,0.009521484,-0.011718750,0.914306641
0.037803650,0.022598267,0.024192810,0.002197266,-0.009765625,0.898925781
-0.099525452,-0.023178101,-0.082618713,-0.000244141,-0.006103516,0.910156250
0.022544861,0.007339478,-0.036842346,0.000000000,-0.014648438,0.914306641
0.114097595,0.037857056,0.024192810,0.011474609,-0.011718750,0.925048828
-0.023231506,0.114151001,-0.006324768,0.002441406,-0.012695313,0.920166016
0.022544861,-0.007919312,0.039451599,0.000732422,-0.015625000,0.902832031
0.098838806,0.098892212,-0.006324768,0.001708984,-0.017333984,0.917724609
0.144615173,-0.145248413,0.054710388,0.003662109,-0.012207031,0.912597656
-0.038490295,0.098892212,-0.128395081,0.001220703,-0.012207031,0.917968750
0.114097595,0.098892212,-0.006324768,0.007080078,-0.010986328,0.909179688
-0.114784241,0.175186157,0.039451599,0.000000000,-0.017089844,0.918945313
-0.053749084,0.007339478,0.008934021,0.006835938,-0.013916016,0.912597656
0.053062439,-0.053695679,0.253074646,0.004150391,-0.012695313,0.919677734
0.144615173,-0.023178101,0.008934021,0.003662109,-0.007812500,0.916503906
0.144615173,-0.023178101,-0.021583557,0.009765625,-0.016357422,0.914794922
-0.069007874,0.129409790,0.008934021,-0.005615234,-0.014160156,0.911865234
-0.160560608,0.037857056,-0.158912659,0.005126953,-0.017822266,0.911132813
-0.069007874,0.053115845,0.207298279,0.000976563,-0.014160156,0.915771484
0.007286072,-0.023178101,-0.067359924,-0.000488281,-0.016845703,0.917236328
0.159873962,0.098892212,0.008934021,-0.000244141,-0.014160156,0.922607422
-0.007972717,0.083633423,-0.052101135,0.000000000,-0.017089844,0.913330078
-0.175819397,-0.053695679,-0.052101135,0.005371094,-0.009033203,0.911376953
0.098838806,0.114151001,0.054710388,0.002929688,-0.012939453,0.916259766
0.129356384,-0.084213257,0.008934021,0.005859375,-0.011718750,0.912597656
0.083580017,0.037857056,0.024192810,0.002685547,-0.013427734,0.917480469
-0.053749084,0.037857056,0.008934021,0.003173828,-0.012695313,0.911621094
-0.007972717,0.068374634,-0.052101135,0.001464844,-0.009033203,0.918701172
-0.069007874,-0.038436890,0.039451599,0.000000000,-0.010986328,0.912353516
-0.130043030,-0.129989624,0.054710388,0.006103516,-0.013427734,0.919433594
-0.053749084,-0.068954468,-0.021583557,0.009277344,-0.016601563,0.916748047
-0.084266663,-0.023178101,-0.143653870,0.000488281,-0.011718750,0.917724609
-0.038490295,-0.084213257,-0.113136292,-0.001464844,-0.010986328,0.916748047
-0.084266663,-0.053695679,-0.158912659,0.004394531,-0.015625000,0.916015625
0.098838806,-0.023178101,0.054710388,0.007080078,-0.010742188,0.921142578
0.190391541,0.236221313,0.100486755,0.001464844,-0.006835938,0.919921875
0.083580017,-0.007919312,0.008934021,0.006103516,-0.011230469,0.913574219
0.022544861,0.022598267,0.100486755,0.005371094,-0.008789063,0.911865234
0.144615173,-0.145248413,-0.143653870,0.005371094,-0.013427734,0.912841797
-0.023231506,0.083633423,-0.021583557,0.008789063,-0.012451172,0.917480469
-0.114784241,-0.160507202,0.008934021,0.003662109,-0.010498047,0.913330078
0.083580017,-0.023178101,0.039451599,0.003662109,-0.015625000,0.918701172
0.114097595,0.007339478,0.115745544,0.005126953,-0.016845703,0.915527344
0.144615173,-0.007919312,0.039451599,0.007812500,-0.010009766,0.909179688
-0.023231506,0.053115845,-0.021583557,-0.002197266,-0.012207031,0.923339844
-0.038490295,-0.038436890,0.131004333,0.023437500,-0.010009766,0.918945313
-0.160560608,0.053115845,0.024192810,0.001708984,-0.018554688,0.908447266
0.083580017,-0.068954468,0.054710388,-0.003417969,-0.013916016,0.922607422
0.144615173,-0.114730835,0.069969177,0.003906250,-0.009765625,0.918701172
-0.007972717,0.037857056,0.054710388,0.001464844,-0.012451172,0.916992188
-0.053749084,0.083633423,-0.021583557,0.000976563,-0.011474609,0.918212891
-0.160560608,-0.038436890,-0.006324768,0.000488281,-0.010742188,0.917724609
0.022544861,-0.007919312,0.008934021,-0.001708984,-0.011962891,0.909179688
-0.099525452,-0.023178101,-0.006324768,0.010742188,-0.017089844,0.916748047
-0.023231506,0.114151001,0.008934021,0.003662109,-0.007324219,0.916748047
-0.007972717,-0.038436890,0.054710388,0.004638672,-0.011962891,0.913818359
0.068321228,-0.145248413,-0.067359924,0.006591797,-0.013183594,0.914550781
0.037803650,0.068374634,0.008934021,0.002929688,-0.016113281,0.910156250
-0.130043030,0.098892212,-0.097877502,0.007812500,-0.012207031,0.921386719
-0.053749084,0.068374634,-0.021583557,0.007080078,-0.009277344,0.908447266
-0.038490295,-0.114730835,0.176780701,0.001464844,-0.015380859,0.920166016
0.053062439,0.037857056,-0.113136292,0.001464844,-0.016601563,0.906982422
-0.007972717,0.007339478,-0.174171448,0.000976563,-0.010986328,0.918457031
-0.114784241,-0.038436890,-0.082618713,0.010009766,-0.011718750,0.909667969
-0.099525452,-0.145248413,0.131004333,0.003662109,-0.021728516,0.916503906
-0.038490295,0.053115845,0.131004333,-0.003417969,-0.011962891,0.915039063
-0.038490295,0.175186157,-0.036842346,0.003417969,-0.012939453,0.911621094
0.083580017,0.022598267,-0.143653870,0.005371094,-0.015380859,0.915527344
-0.114784241,-0.038436890,-0.021583557,0.002929688,-0.010009766,0.919433594
0.083580017,-0.007919312,0.100486755,0.004150391,-0.008056641,0.912353516
-0.069007874,-0.023178101,0.054710388,-0.001953125,-0.010986328,0.913330078
-0.053749084,0.022598267,0.146263123,0.000488281,-0.014648438,0.925292969
0.068321228,0.007339478,0.192039490,0.004638672,-0.015869141,0.923583984
0.068321228,0.083633423,0.054710388,0.000976563,-0.010498047,0.916992188
0.114097595,-0.007919312,-0.097877502,0.003662109,-0.015380859,0.909423828
0.083580017,-0.206283569,0.039451599,0.004638672,-0.012451172,0.909179688
-0.099525452,0.129409790,-0.082618713,0.004882813,-0.014648438,0.913085938
-0.099525452,0.175186157,0.131004333,0.004394531,-0.010253906,0.911132813
0.037803650,0.190444946,-0.128395081,-0.002929688,-0.013427734,0.914550781
0.068321228,-0.084213257,-0.036842346,0.004638672,-0.014892578,0.923339844
0.129356384,0.037857056,0.024192810,-0.001464844,-0.014404297,0.917480469
0.098838806,0.083633423,-0.006324768,0.006103516,-0.014160156,0.910888672
0.266685486,-0.175765991,-0.113136292,0.009033203,-0.010009766,0.910644531
-0.007972717,-0.160507202,-0.052101135,0.004150391,-0.009033203,0.917968750
0.114097595,0.159927368,0.085227966,0.003906250,-0.011474609,0.915283203
-0.175819397,0.053115845,0.100486755,0.004394531,-0.015625000,0.910156250
-0.053749084,0.053115845,-0.036842346,0.005126953,-0.014892578,0.916259766
0.098838806,-0.099472046,-0.067359924,0.008789063,-0.011718750,0.907958984
-0.099525452,-0.007919312,0.039451599,0.004394531,-0.022460938,0.913330078
0.053062439,-0.038436890,0.039451599,0.003417969,-0.006591797,0.914306641
0.007286072,-0.007919312,0.100486755,0.009033203,-0.014892578,0.916992188
0.098838806,-0.053695679,0.054710388,0.002441406,-0.008056641,0.913818359
-0.084266663,-0.007919312,-0.006324768,0.005126953,-0.011474609,0.906738281
0.220909119,-0.145248413,-0.006324768,0.003662109,-0.011718750,0.918945313
0.083580017,0.083633423,0.115745544,0.000000000,-0.015136719,0.917968750
-0.175819397,-0.068954468,-0.067359924,-0.002197266,-0.010986328,0.907958984
-0.053749084,-0.145248413,-0.113136292,0.000488281,-0.013916016,0.917968750
-0.007972717,0.007339478,0.024192810,-0.000244141,-0.011230469,0.915527344
0.053062439,0.236221313,-0.006324768,0.003906250,-0.007324219,0.908935547
-0.023231506,-0.053695679,-0.006324768,-0.003173828,-0.010986328,0.917480469
0.068321228,0.144668579,-0.021583557,-0.000244141,-0.008544922,0.913574219
-0.099525452,0.037857056,-0.143653870,0.002197266,-0.016113281,0.913574219
0.068321228,-0.145248413,-0.006324768,0.009033203,-0.013916016,0.916259766
0.068321228,-0.053695679,-0.052101135,0.004150391,-0.013916016,0.920166016
0.068321228,0.114151001,-0.006324768,0.001953125,-0.008544922,0.912109375
-0.236854553,-0.145248413,-0.036842346,0.001953125,-0.011230469,0.915771484
0.037803650,-0.068954468,-0.052101135,0.000976563,-0.008789063,0.917724609
0.037803650,-0.023178101,0.024192810,0.002929688,-0.009033203,0.915039063
-0.099525452,-0.336853027,0.024192810,0.005859375,-0.011718750,0.910644531
0.144615173,-0.053695679,-0.067359924,0.007812500,-0.010009766,0.916748047
-0.053749084,0.083633423,0.054710388,0.005126953,-0.009521484,0.910888672
-0.007972717,0.144668579,0.024192810,0.005859375,-0.014648438,0.903320313
0.098838806,0.007339478,-0.036842346,0.007324219,-0.012695313,0.912353516
-0.267372131,0.190444946,-0.082618713,0.006103516,-0.015136719,0.911132813
-0.038490295,-0.053695679,-0.006324768,0.001464844,-0.012207031,0.930664063
-0.145301819,0.098892212,0.069969177,0.002441406,-0.016113281,0.917968750
0.037803650,-0.023178101,0.024192810,0.003662109,-0.018310547,0.921875000
-0.007972717,0.053115845,-0.082618713,0.004638672,-0.011474609,0.912597656
-0.038490295,0.098892212,-0.021583557,0.007568359,-0.010009766,0.921142578
-0.038490295,-0.023178101,0.176780701,0.006835938,-0.011962891,0.921386719
-0.114784241,-0.099472046,0.131004333,0.001953125,-0.009521484,0.916503906
-0.069007874,0.068374634,-0.021583557,0.002197266,-0.007080078,0.906494141
0.114097595,0.022598267,0.024192810,0.007080078,-0.009765625,0.917724609
-0.038490295,0.175186157,-0.097877502,0.006835938,-0.009033203,0.912841797
-0.175819397,-0.053695679,-0.036842346,0.001464844,-0.005615234,0.911865234
-0.114784241,-0.007919312,-0.158912659,0.007080078,-0.016845703,0.915527344
-0.069007874,0.159927368,-0.052101135,0.007080078,-0.004882813,0.920410156
-0.053749084,-0.068954468,0.054710388,0.006591797,-0.012451172,0.916503906
-0.038490295,0.129409790,0.008934021,0.003906250,-0.011230469,0.915283203
0.007286072,0.037857056,0.008934021,0.001953125,-0.014160156,0.905273438
-0.038490295,0.068374634,0.008934021,0.000000000,-0.009521484,0.912109375
0.037803650,-0.038436890,-0.021583557,0.006347656,-0.010742188,0.913818359
0.007286072,-0.099472046,-0.097877502,0.003662109,-0.008056641,0.912841797
-0.114784241,0.037857056,0.008934021,0.005371094,-0.014404297,0.908691406
-0.114784241,-0.191024780,-0.128395081,0.010009766,-0.011474609,0.923583984
-0.084266663,0.053115845,0.069969177,0.010253906,-0.015380859,0.920166016
0.007286072,0.007339478,-0.036842346,0.002685547,-0.005859375,0.916748047
0.022544861,0.159927368,0.085227966,0.000244141,-0.010986328,0.912597656
-0.175819397,-0.007919312,-0.006324768,0.003906250,-0.011962891,0.912841797
0.129356384,0.037857056,-0.036842346,0.007080078,-0.012939453,0.914550781
-0.069007874,0.098892212,0.024192810,0.006591797,-0.015380859,0.916015625
-0.053749084,0.037857056,-0.082618713,0.010742188,-0.015136719,0.920410156
-0.069007874,0.068374634,-0.158912659,0.005126953,-0.017578125,0.918945313
-0.069007874,-0.023178101,-0.021583557,-0.000488281,-0.010009766,0.916503906
-0.053749084,0.159927368,-0.021583557,0.008789063,-0.009277344,0.918457031
0.281944275,-0.007919312,0.008934021,0.005126953,-0.012451172,0.921386719
0.022544861,0.114151001,0.054710388,0.008300781,-0.011230469,0.912597656
-0.145301819,0.144668579,0.024192810,0.001953125,-0.016845703,0.917480469
-0.130043030,-0.084213257,-0.036842346,-0.001464844,-0.009521484,0.916259766
0.205650330,0.022598267,0.024192810,0.007324219,-0.017089844,0.920898438
-0.038490295,-0.068954468,0.024192810,0.002441406,-0.017089844,0.911621094
0.068321228,-0.099472046,0.008934021,0.003662109,-0.014892578,0.907470703
0.007286072,0.190444946,0.069969177,0.002685547,-0.014404297,0.913574219
0.068321228,-0.084213257,0.054710388,0.003662109,-0.016113281,0.913818359
0.053062439,0.266738892,-0.036842346,0.003417969,-0.009521484,0.914062500
-0.084266663,-0.023178101,-0.097877502,-0.001464844,-0.010498047,0.917480469
-0.099525452,0.022598267,-0.036842346,0.001220703,-0.014160156,0.911132813
0.007286072,-0.038436890,-0.021583557,0.000244141,-0.016845703,0.921875000
0.007286072,0.068374634,0.024192810,0.005371094,-0.007812500,0.923828125
0.098838806,-0.114730835,0.100486755,-0.001953125,-0.016601563,0.920654297
0.114097595,-0.038436890,0.100486755,0.002441406,-0.016357422,0.911621094
0.022544861,0.007339478,-0.021583557,0.004638672,-0.011962891,0.918701172
0.037803650,0.175186157,0.131004333,0.007080078,-0.011230469,0.923828125
-0.084266663,-0.129989624,0.085227966,0.003173828,-0.015136719,0.920654297
-0.007972717,0.098892212,0.069969177,0.006591797,-0.018554688,0.915283203
-0.007972717,-0.007919312,0.115745544,0.003662109,-0.007324219,0.925292969
0.190391541,-0.023178101,-0.128395081,0.000976563,-0.014404297,0.911132813
-0.038490295,0.114151001,-0.052101135,0.000732422,-0.013916016,0.922119141
-0.099525452,-0.007919312,0.039451599,-0.001464844,-0.011718750,0.918945313
0.007286072,-0.175765991,0.100486755,0.002685547,-0.014404297,0.919677734
-0.007972717,0.190444946,-0.067359924,0.000000000,-0.013183594,0.911132813
0.098838806,-0.114730835,0.008934021,0.003906250,-0.011230469,0.922851563
-0.069007874,0.236221313,0.085227966,0.005859375,-0.019531250,0.918212891
0.007286072,0.007339478,0.024192810,0.003417969,-0.016113281,0.916503906
0.007286072,-0.007919312,0.115745544,0.006835938,-0.011474609,0.907958984
0.007286072,0.007339478,-0.021583557,0.001953125,-0.013427734,0.911376953
-0.023231506,0.053115845,0.069969177,0.002929688,-0.010986328,0.906250000
-0.069007874,-0.007919312,0.069969177,0.004394531,-0.015136719,0.912109375
0.098838806,-0.023178101,-0.143653870,0.004150391,-0.011718750,0.904541016
-0.007972717,-0.068954468,0.069969177,0.007568359,-0.012207031,0.914794922
-0.160560608,-0.038436890,-0.006324768,0.000732422,-0.015380859,0.910644531
0.022544861,0.190444946,-0.021583557,0.004394531,-0.012207031,0.912597656
0.190391541,0.098892212,-0.052101135,-0.002441406,-0.009277344,0.908447266
-0.221595764,0.022598267,0.024192810,0.001220703,-0.011474609,0.906982422
-0.099525452,0.205703735,0.131004333,0.000488281,-0.012939453,0.910888672
-0.114784241,-0.023178101,-0.097877502,0.000732422,-0.013183594,0.917236328
0.220909119,0.114151001,-0.052101135,0.000976563,-0.005371094,0.909912109
-0.084266663,-0.023178101,-0.021583557,0.002685547,-0.015625000,0.914306641
-0.053749084,0.022598267,-0.143653870,0.004150391,-0.011474609,0.909179688
0.098838806,-0.068954468,-0.113136292,0.002197266,-0.013183594,0.906982422
0.037803650,-0.038436890,0.039451599,0.000244141,-0.016113281,0.909667969
0.037803650,-0.038436890,0.176780701,0.009765625,-0.012695313,0.916503906
-0.007972717,-0.023178101,-0.097877502,0.000976563,-0.016601563,0.919433594
0.098838806,0.114151001,0.085227966,0.005859375,-0.009765625,0.913574219
0.175132751,-0.068954468,0.039451599,0.006835938,-0.019042969,0.912353516
0.037803650,-0.007919312,0.024192810,0.001708984,-0.010742188,0.907958984
0.037803650,0.144668579,0.008934021,0.006103516,-0.016357422,0.917724609
0.175132751,-0.038436890,0.069969177,0.007324219,-0.010009766,0.915039063
0.053062439,0.007339478,0.069969177,0.004150391,-0.011230469,0.916259766
-0.023231506,-0.038436890,-0.021583557,0.008056641,-0.015380859,0.924072266
-0.023231506,0.037857056,0.069969177,0.003662109,-0.011718750,0.916259766
0.007286072,-0.191024780,0.008934021,-0.000732422,-0.010253906,0.921875000
0.129356384,-0.160507202,0.069969177,0.003906250,-0.014160156,0.922363281
-0.053749084,-0.068954468,0.054710388,0.000244141,-0.015380859,0.907958984
0.159873962,-0.191024780,0.100486755,0.003417969,-0.010742188,0.916503906
-0.023231506,-0.053695679,-0.082618713,-0.001953125,-0.007568359,0.915283203
0.190391541,-0.221542358,-0.052101135,0.006103516,-0.010253906,0.916259766
0.037803650,-0.099472046,-0.097877502,0.002441406,-0.014160156,0.914794922
-0.007972717,-0.114730835,-0.021583557,-0.004394531,-0.014404297,0.917236328
0.022544861,-0.023178101,0.054710388,-0.001708984,-0.010742188,0.924804688
0.022544861,-0.023178101,0.024192810,0.006347656,-0.010742188,0.919433594
0.114097595,0.190444946,-0.082618713,0.002929688,-0.015869141,0.921386719
-0.023231506,0.083633423,0.054710388,0.008544922,-0.011718750,0.917724609
0.159873962,0.037857056,-0.052101135,0.007812500,-0.017089844,0.913818359
0.007286072,-0.023178101,0.039451599,0.003906250,-0.013427734,0.924316406
-0.023231506,-0.114730835,-0.006324768,0.000000000,-0.007324219,0.910888672
0.007286072,0.022598267,-0.052101135,0.000000000,-0.013183594,0.916015625
0.037803650,-0.068954468,0.008934021,0.001708984,-0.012451172,0.921386719
-0.023231506,0.159927368,-0.036842346,0.005859375,-0.018554688,0.922119141
-0.038490295,-0.053695679,-0.021583557,0.006591797,-0.015869141,0.918212891
-0.130043030,-0.023178101,0.192039490,0.001220703,-0.010986328,0.907714844
-0.023231506,-0.007919312,-0.052101135,0.004638672,-0.005615234,0.920410156
0.007286072,0.053115845,-0.006324768,0.001953125,-0.012695313,0.908447266
-0.007972717,-0.023178101,-0.052101135,0.002197266,-0.008056641,0.916992188
0.053062439,0.053115845,0.054710388,0.003906250,-0.007568359,0.909667969
0.007286072,0.114151001,-0.067359924,0.005859375,-0.012939453,0.919921875
0.159873962,0.053115845,0.039451599,0.004882813,-0.013671875,0.916015625
-0.038490295,0.037857056,-0.036842346,0.006591797,-0.012207031,0.921386719
0.007286072,0.037857056,0.085227966,0.002685547,-0.012451172,0.917480469
0.037803650,0.022598267,0.115745544,0.000976563,-0.009521484,0.923828125
0.037803650,0.205703735,-0.036842346,0.003906250,-0.015380859,0.912597656
-0.038490295,-0.145248413,0.131004333,0.001464844,-0.014404297,0.919921875
0.144615173,0.175186157,-0.082618713,0.000976563,-0.013671875,0.912353516
0.083580017,-0.007919312,0.024192810,0.004394531,-0.008789063,0.917480469
-0.114784241,-0.068954468,-0.097877502,0.001953125,-0.012695313,0.920654297
-0.130043030,0.068374634,0.054710388,0.007568359,-0.007812500,0.907958984
-0.053749084,-0.053695679,0.024192810,0.001220703,-0.010253906,0.908447266
0.205650330,0.083633423,0.008934021,-0.000732422,-0.009765625,0.913574219
0.144615173,0.022598267,0.115745544,0.004638672,-0.010986328,0.916015625
0.068321228,-0.175765991,0.115745544,0.006591797,-0.011230469,0.916259766
-0.053749084,0.129409790,0.100486755,0.002929688,-0.016357422,0.915771484
0.068321228,0.083633423,0.131004333,-0.001708984,-0.014160156,0.911865234
-0.007972717,0.007339478,-0.006324768,0.005371094,-0.007080078,0.925292969
0.022544861,0.022598267,0.039451599,0.000732422,-0.013427734,0.906982422
-0.099525452,-0.099472046,-0.158912659,0.004150391,-0.008300781,0.909179688
-0.053749084,0.220962524,0.146263123,0.001464844,-0.007812500,0.919433594
0.022544861,-0.007919312,0.024192810,0.005615234,-0.007324219,0.911865234
-0.160560608,-0.053695679,-0.082618713,0.010742188,-0.013427734,0.916259766
0.007286072,0.114151001,0.024192810,0.003417969,-0.011962891,0.915039063
0.190391541,-0.053695679,-0.021583557,0.000976563,-0.013916016,0.908203125
0.098838806,-0.023178101,0.115745544,0.002197266,-0.007080078,0.914550781
-0.114784241,0.083633423,-0.067359924,0.007324219,-0.010253906,0.915527344
0.022544861,-0.023178101,-0.189430237,0.005859375,-0.013427734,0.909423828
0.022544861,-0.221542358,-0.082618713,0.005615234,-0.010742188,0.917480469
-0.069007874,0.053115845,0.085227966,0.005615234,-0.012451172,0.909667969
-0.099525452,-0.007919312,-0.036842346,0.004150391,-0.014160156,0.919433594
-0.206336975,-0.053695679,0.039451599,0.001953125,-0.005126953,0.915283203
0.053062439,0.068374634,0.085227966,0.006591797,-0.009277344,0.905273438
0.022544861,0.068374634,0.008934021,0.008056641,-0.006591797,0.919433594
0.159873962,0.205703735,0.039451599,-0.003662109,-0.017333984,0.918945313
-0.023231506,-0.007919312,-0.082618713,-0.000976563,-0.015625000,0.917724609
0.159873962,-0.038436890,0.008934021,0.008544922,-0.017822266,0.911621094
-0.007972717,0.175186157,0.024192810,0.001220703,-0.013671875,0.915527344
-0.145301819,0.053115845,0.008934021,0.001464844,-0.011230469,0.921875000
0.007286072,0.053115845,-0.006324768,0.000244141,-0.010498047,0.916503906
-0.069007874,0.007339478,0.039451599,0.004394531,-0.010742188,0.911132813
0.022544861,0.053115845,-0.174171448,0.007568359,-0.010253906,0.916748047
-0.084266663,0.037857056,-0.006324768,0.004394531,-0.011230469,0.911132813
-0.038490295,-0.053695679,0.054710388,0.007324219,-0.017822266,0.914794922
-0.038490295,0.053115845,0.131004333,0.006591797,-0.006103516,0.916015625
-0.160560608,-0.068954468,0.039451599,0.000000000,-0.010742188,0.923095703
0.037803650,-0.068954468,-0.036842346,0.005859375,-0.018066406,0.919921875
0.083580017,0.007339478,-0.067359924,0.000000000,-0.009033203,0.916503906
-0.053749084,-0.084213257,-0.082618713,0.003906250,-0.012207031,0.914550781
-0.069007874,0.114151001,0.085227966,0.006835938,-0.013916016,0.917724609
-0.007972717,0.129409790,0.085227966,0.001464844,-0.010986328,0.912597656
-0.130043030,-0.068954468,-0.052101135,0.004394531,-0.010009766,0.915039063
-0.175819397,0.098892212,0.146263123,0.004150391,-0.010742188,0.917236328
-0.007972717,0.037857056,0.024192810,0.007080078,-0.017333984,0.924804688
0.053062439,0.175186157,0.039451599,0.001220703,-0.012207031,0.913818359
-0.130043030,-0.160507202,0.069969177,0.002197266,-0.008789063,0.910644531
0.144615173,-0.038436890,0.008934021,0.001464844,-0.012451172,0.914794922
0.053062439,0.098892212,0.054710388,0.004882813,-0.012451172,0.910888672
-0.007972717,-0.053695679,-0.052101135,0.000976563,-0.007080078,0.909179688
-0.053749084,0.098892212,-0.113136292,0.000000000,-0.007812500,0.903076172
0.083580017,-0.099472046,0.069969177,0.004150391,-0.013916016,0.915039063
0.098838806,-0.191024780,0.176780701,0.005371094,-0.015136719,0.913085938
0.007286072,-0.068954468,-0.082618713,0.003662109,-0.014892578,0.919189453
-0.007972717,-0.053695679,0.024192810,0.000244141,-0.019287109,0.916748047
-0.007972717,0.037857056,0.024192810,0.007568359,-0.014648438,0.921630859
0.037803650,0.037857056,-0.021583557,0.009765625,-0.008544922,0.914062500
0.114097595,0.098892212,0.054710388,-0.001464844,-0.010986328,0.925048828
-0.053749084,0.037857056,-0.036842346,0.000732422,-0.013183594,0.918701172
-0.084266663,0.053115845,-0.036842346,0.002685547,-0.010986328,0.920654297
-0.130043030,0.037857056,0.069969177,-0.000976563,-0.009765625,0.919677734
0.144615173,-0.084213257,0.039451599,-0.000976563,-0.016113281,0.917480469
0.022544861,-0.114730835,0.008934021,0.010253906,-0.019531250,0.917480469
0.007286072,-0.068954468,0.024192810,0.001220703,-0.010498047,0.915039063
0.053062439,0.220962524,-0.067359924,-0.003662109,-0.013427734,0.906494141
-0.099525452,0.129409790,0.054710388,0.004394531,-0.015380859,0.919433594
0.068321228,-0.068954468,-0.082618713,0.007324219,-0.013183594,0.916503906
-0.145301819,-0.038436890,-0.052101135,0.007324219,-0.009765625,0.918457031
0.068321228,-0.023178101,0.008934021,0.008056641,-0.014648438,0.921386719
0.053062439,-0.221542358,-0.036842346,0.003662109,-0.011962891,0.919189453
-0.206336975,-0.099472046,0.008934021,0.001953125,-0.012207031,0.918212891
0.251426697,0.022598267,-0.052101135,0.005126953,-0.013427734,0.916503906
0.007286072,-0.206283569,0.100486755,0.000000000,-0.010742188,0.920898438
0.053062439,0.068374634,0.085227966,0.011718750,-0.014404297,0.909423828
0.083580017,0.144668579,-0.067359924,0.004150391,-0.005126953,0.915527344
-0.160560608,-0.068954468,-0.021583557,-0.001953125,-0.013916016,0.916015625
-0.114784241,-0.206283569,-0.128395081,0.006835938,-0.008544922,0.916503906
0.022544861,0.159927368,0.115745544,0.004150391,-0.010253906,0.912109375
-0.038490295,0.098892212,0.146263123,0.002197266,-0.013183594,0.914306641
-0.099525452,0.037857056,-0.052101135,0.005126953,-0.013671875,0.913330078
0.022544861,0.037857056,-0.021583557,0.002441406,-0.012451172,0.913085938
0.068321228,0.037857056,-0.113136292,0.002685547,-0.012207031,0.911865234
-0.130043030,-0.206283569,-0.158912659,0.003173828,-0.013427734,0.917236328
-0.053749084,0.053115845,-0.097877502,0.003173828,-0.010253906,0.913574219
0.068321228,0.083633423,-0.113136292,0.000976563,-0.012451172,0.923339844
-0.023231506,-0.084213257,0.039451599,0.006591797,-0.007812500,0.917724609
-0.114784241,0.007339478,0.161521912,0.008544922,-0.014892578,0.913330078
0.037803650,0.068374634,-0.143653870,0.000976563,-0.010253906,0.916015625
0.114097595,0.159927368,-0.204689026,0.002685547,-0.016357422,0.915527344
-0.053749084,0.144668579,-0.036842346,-0.000244141,-0.010742188,0.907714844
0.083580017,-0.053695679,-0.036842346,0.006347656,-0.008544922,0.919433594
-0.007972717,0.007339478,0.085227966,0.005371094,-0.017578125,0.915283203
-0.007972717,0.007339478,0.054710388,0.001464844,-0.007812500,0.915283203
0.098838806,-0.084213257,0.039451599,0.006591797,-0.015869141,0.912597656
-0.160560608,-0.099472046,-0.082618713,-0.000976563,-0.014648438,0.916992188
-0.069007874,0.022598267,0.069969177,0.000244141,-0.008056641,0.909179688
-0.038490295,-0.023178101,-0.204689026,0.007324219,-0.006103516,0.917480469
-0.023231506,-0.053695679,0.222557068,0.005859375,-0.011962891,0.924804688
0.098838806,0.083633423,0.069969177,0.006835938,-0.015869141,0.906005859
0.053062439,-0.023178101,-0.052101135,-0.000976563,-0.010253906,0.908935547
-0.023231506,0.007339478,0.131004333,0.004394531,-0.016601563,0.924316406
0.068321228,-0.129989624,0.039451599,0.003906250,-0.014160156,0.920410156
0.053062439,-0.053695679,-0.036842346,0.009277344,-0.010498047,0.917968750
0.129356384,-0.160507202,-0.174171448,-0.002441406,-0.014404297,0.907470703
0.022544861,0.083633423,0.069969177,-0.003173828,-0.011230469,0.921142578
-0.053749084,0.053115845,0.024192810,0.004638672,-0.013427734,0.916748047
-0.069007874,0.007339478,-0.036842346,0.007324219,-0.015136719,0.918945313
-0.023231506,-0.068954468,0.008934021,0.011474609,-0.009521484,0.913330078
-0.114784241,-0.007919312,0.100486755,0.009277344,-0.013427734,0.916748047
0.053062439,-0.068954468,-0.097877502,0.000732422,-0.014160156,0.922119141
-0.007972717,-0.053695679,-0.036842346,0.001464844,-0.014160156,0.915039063
0.053062439,0.114151001,-0.128395081,0.000488281,-0.006103516,0.919433594
-0.206336975,-0.053695679,0.024192810,0.004150391,-0.010742188,0.911865234
0.098838806,-0.084213257,-0.143653870,0.004150391,-0.010253906,0.915283203
-0.038490295,-0.038436890,0.192039490,0.001953125,-0.009765625,0.917480469
0.098838806,-0.038436890,0.146263123,0.008544922,-0.010742188,0.914550781
-0.053749084,0.053115845,0.039451599,0.005859375,-0.016357422,0.909667969
0.068321228,0.083633423,0.069969177,0.007812500,-0.013916016,0.908691406
-0.130287170,-0.068954468,0.069969177,0.001708984,-0.013427734,0.919433594
0.220909119,-0.114730835,0.100486755,0.003417969,-0.006103516,0.917968750
-0.023231506,-0.007919312,-0.082618713,-0.000976563,-0.015869141,0.915771484
0.205650330,-0.145248413,-0.082618713,0.007568359,-0.008056641,0.905517578
0.098838806,0.175186157,-0.158912659,0.007080078,-0.006835938,0.917236328
0.068321228,-0.114730835,0.039451599,0.001220703,-0.012695313,0.919677734
-0.023231506,0.022598267,-0.036842346,0.006835938,-0.009277344,0.911865234
0.007286072,-0.068954468,0.085227966,0.007324219,-0.011718750,0.914794922
0.068321228,0.037857056,-0.036842346,0.007324219,-0.011718750,0.915039063
-0.053749084,0.098892212,0.069969177,0.005615234,-0.018798828,0.909912109
-0.191078186,0.037857056,0.069969177,0.005615234,-0.011718750,0.913818359
-0.084266663,0.007339478,-0.067359924,0.002685547,-0.009521484,0.920654297
0.037803650,-0.099472046,0.085227966,0.000976563,-0.016113281,0.909423828
-0.053749084,-0.084213257,0.008934021,0.005126953,-0.014892578,0.909667969
0.022544861,0.068374634,-0.006324768,0.006591797,-0.013671875,0.913085938
0.053062439,-0.023178101,0.054710388,0.003417969,-0.008544922,0.920654297
0.144615173,0.068374634,-0.082618713,0.011230469,-0.008056641,0.911621094
-0.023231506,-0.129989624,0.085227966,0.002685547,-0.014892578,0.912841797
-0.175819397,0.007339478,-0.143653870,0.004394531,-0.012207031,0.923095703
-0.038490295,-0.023178101,0.039451599,0.011230469,-0.016601563,0.921630859
-0.053749084,-0.084213257,0.008934021,0.007080078,-0.018798828,0.913818359
0.083580017,0.022598267,0.039451599,0.001464844,-0.012451172,0.914306641
-0.114784241,0.022598267,0.054710388,0.005859375,-0.010742188,0.916748047
-0.053749084,-0.084213257,-0.021583557,0.001220703,-0.009765625,0.922851563
-0.160560608,-0.038436890,0.100486755,0.007080078,-0.013427734,0.920898438
0.022544861,0.098892212,0.039451599,0.003417969,-0.011230469,0.915771484
-0.007972717,0.022598267,-0.128395081,0.002441406,-0.010009766,0.916259766
0.037803650,0.007339478,0.100486755,0.006591797,-0.015869141,0.915283203
-0.023231506,0.083633423,-0.052101135,0.010742188,-0.007812500,0.918945313
0.007286072,-0.114730835,-0.036842346,0.009277344,-0.015136719,0.914062500
-0.069007874,0.068374634,-0.082618713,0.006591797,-0.010253906,0.916015625
-0.069007874,0.022598267,-0.006324768,0.007080078,-0.009277344,0.915039063
-0.053749084,0.083633423,0.039451599,0.002929688,-0.012207031,0.909179688
-0.114784241,0.098892212,-0.021583557,0.008056641,-0.011718750,0.920898438
0.037803650,0.068374634,-0.036842346,-0.002685547,-0.011718750,0.909179688
-0.007972717,-0.114730835,0.008934021,0.004882813,-0.008300781,0.914550781
0.053062439,-0.068954468,0.024192810,0.002929688,-0.010742188,0.919921875
0.068321228,0.022598267,-0.036842346,0.008056641,-0.014892578,0.918945313
-0.038490295,0.037857056,0.146263123,0.005126953,-0.010009766,0.921875000
-0.038490295,0.129409790,0.039451599,0.001953125,-0.012451172,0.916015625
-0.023231506,-0.007919312,-0.006324768,-0.000976563,-0.015136719,0.917724609
0.068321228,-0.068954468,0.024192810,-0.000732422,-0.019042969,0.911621094
0.068321228,0.205703735,0.115745544,0.005615234,-0.009765625,0.910400391
-0.023231506,0.007339478,0.054710388,0.002197266,-0.013916016,0.912597656
-0.053749084,0.022598267,-0.021583557,0.005859375,-0.014404297,0.911376953
-0.130043030,0.037857056,0.161521912,0.000000000,-0.013916016,0.913330078
-0.038490295,-0.084213257,0.161521912,-0.000244141,-0.012939453,0.917724609
-0.145301819,-0.007919312,0.008934021,0.008544922,-0.018798828,0.916992188
0.037803650,-0.099472046,0.008934021,0.005126953,-0.009033203,0.916015625
0.129356384,-0.038436890,-0.006324768,0.008789063,-0.016357422,0.924560547
-0.038490295,0.007339478,-0.052101135,0.001464844,-0.007812500,0.910888672
0.114097595,0.068374634,0.069969177,0.005615234,-0.011230469,0.910644531
-0.038490295,-0.175765991,0.100486755,0.003417969,-0.014404297,0.910156250
0.068321228,-0.007919312,-0.036842346,0.011474609,-0.006835938,0.913574219
0.037803650,0.144668579,-0.052101135,0.001708984,-0.011718750,0.904541016
0.007286072,0.007339478,0.054710388,0.002441406,-0.007080078,0.913085938
0.098838806,-0.038436890,0.100486755,0.003662109,-0.011962891,0.911621094
0.007286072,0.037857056,-0.052101135,0.007568359,-0.010009766,0.914794922
-0.130043030,0.037857056,0.146263123,0.004638672,-0.013427734,0.909667969
-0.084266663,-0.175765991,0.085227966,0.007324219,-0.008300781,0.916259766
0.022544861,-0.068954468,0.085227966,0.001220703,-0.012939453,0.912597656
-0.053749084,-0.038436890,-0.052101135,0.002441406,-0.010742188,0.921875000
0.083580017,0.114151001,0.100486755,-0.001708984,-0.009765625,0.916992188
0.083580017,0.098892212,0.054710388,0.008789063,-0.010253906,0.910156250
0.098838806,0.022598267,0.069969177,-0.000976563,-0.012207031,0.916259766
-0.007972717,-0.084213257,0.207298279,0.002929688,-0.012207031,0.920410156
-0.007972717,-0.145248413,-0.006324768,0.009521484,-0.014892578,0.907958984
-0.084266663,-0.068954468,0.039451599,0.008056641,-0.010986328,0.912841797
-0.084266663,0.053115845,-0.097877502,0.005126953,-0.010742188,0.916015625
-0.038490295,0.068374634,-0.021583557,0.004394531,-0.009765625,0.910400391
-0.023231506,0.037857056,-0.113136292,0.006103516,-0.008544922,0.912841797
0.083580017,-0.099472046,-0.036842346,0.000488281,-0.007080078,0.918457031
-0.175819397,0.068374634,0.146263123,0.008789063,-0.008544922,0.925781250
0.068321228,0.022598267,0.008934021,0.003662109,-0.011718750,0.920410156
0.205650330,0.068374634,0.115745544,0.006347656,-0.013183594,0.920166016
-0.130043030,0.129409790,0.008934021,-0.002197266,-0.009277344,0.920654297
0.007286072,-0.160507202,-0.113136292,0.005615234,-0.014648438,0.903564453
-0.038490295,0.068374634,0.100486755,-0.001220703,-0.016113281,0.908691406
0.098838806,-0.023178101,-0.082618713,0.000732422,-0.016845703,0.927490234
0.053062439,0.037857056,0.039451599,0.001953125,-0.007080078,0.914306641
-0.114784241,0.129409790,0.039451599,-0.000488281,-0.014404297,0.927001953
0.068321228,-0.023178101,-0.052101135,-0.000732422,-0.009033203,0.914062500
-0.145301819,0.068374634,-0.021583557,0.004394531,-0.017333984,0.919433594
0.007286072,-0.007919312,-0.082618713,0.005859375,-0.009033203,0.912109375
-0.145301819,0.068374634,-0.021583557,0.001708984,-0.016113281,0.917480469
-0.099525452,0.098892212,0.039451599,0.004882813,-0.012451172,0.913818359
-0.069007874,0.022598267,-0.113136292,-0.001953125,-0.012451172,0.913330078
-0.069007874,0.007339478,-0.143653870,0.004394531,-0.011718750,0.919433594
-0.023231506,0.037857056,0.161521912,0.003417969,-0.011718750,0.907226563
-0.053749084,0.129409790,0.115745544,0.002929688,-0.014160156,0.913574219
-0.114784241,0.007339478,0.192039490,-0.001708984,-0.016845703,0.922119141
0.068321228,-0.084213257,0.131004333,-0.001708984,-0.014404297,0.906738281
-0.038490295,0.053115845,0.008934021,0.006103516,-0.006835938,0.910644531
0.037803650,0.129409790,-0.097877502,0.003906250,-0.012451172,0.919433594
0.175132751,-0.206283569,0.039451599,0.002197266,-0.008789063,0.919189453
0.129356384,0.083633423,-0.006324768,-0.000976563,-0.004150391,0.912109375
-0.023231506,0.068374634,-0.143653870,0.005126953,-0.012939453,0.914062500
-0.053749084,-0.114730835,0.039451599,0.004150391,-0.012939453,0.912353516
0.053062439,0.144668579,-0.021583557,0.009765625,-0.013427734,0.916748047
-0.007972717,-0.068954468,0.085227966,0.008544922,-0.013916016,0.913574219
-0.206336975,0.236221313,-0.021583557,0.002685547,-0.012695313,0.915283203
-0.069007874,-0.175765991,0.115745544,0.004882813,-0.019531250,0.917724609
0.007286072,0.053115845,0.085227966,0.002929688,-0.010498047,0.912841797
0.114097595,0.190444946,-0.143653870,0.004638672,-0.007324219,0.919677734
0.022544861,-0.038436890,-0.006324768,0.001708984,-0.017822266,0.910156250
-0.038490295,-0.160507202,-0.006324768,0.003417969,-0.014160156,0.915527344
0.053062439,0.175186157,-0.082618713,-0.001708984,-0.011962891,0.912841797
0.068321228,0.037857056,0.146263123,0.006347656,-0.020263672,0.916015625
0.037803650,-0.084213257,0.131004333,0.000976563,-0.012207031,0.919433594
0.129356384,0.007339478,0.039451599,0.002197266,-0.014648438,0.915039063
0.114097595,0.129409790,0.069969177,-0.002441406,-0.010253906,0.915039063
0.007286072,0.022598267,-0.143653870,0.004394531,-0.012207031,0.910400391
0.007286072,0.266738892,0.039451599,0.008300781,-0.012451172,0.918457031
-0.023231506,-0.053695679,0.039451599,0.002929688,-0.011718750,0.921142578
-0.038490295,0.007339478,0.176780701,0.003173828,-0.013671875,0.912109375
0.144615173,0.037857056,0.115745544,-0.001708984,-0.011718750,0.908935547
0.022544861,0.022598267,0.024192810,0.003417969,-0.008056641,0.915527344
0.068321228,-0.038436890,-0.021583557,0.005615234,-0.011962891,0.908935547
0.114097595,0.053115845,0.024192810,0.002441406,-0.009033203,0.914306641
-0.206336975,-0.007919312,-0.036842346,-0.000976563,-0.011230469,0.912109375
-0.069007874,-0.023178101,0.039451599,0.006835938,-0.011230469,0.919433594
-0.038490295,0.037857056,0.069969177,0.010498047,-0.011718750,0.907470703
0.205650330,0.114151001,-0.006324768,0.007568359,-0.009521484,0.903076172
-0.053749084,0.327774048,-0.067359924,0.006103516,-0.011962891,0.916015625
0.007286072,-0.038436890,-0.082618713,0.006591797,-0.013427734,0.915527344
0.022544861,0.068374634,-0.052101135,0.003662109,-0.006103516,0.918701172
0.053062439,-0.084213257,-0.113136292,-0.000976563,-0.008300781,0.905517578
-0.053749084,-0.053695679,-0.082618713,0.005371094,-0.011962891,0.918457031
-0.069007874,-0.068954468,-0.036842346,0.007568359,-0.011474609,0.918212891
-0.053749084,0.098892212,-0.067359924,0.006347656,-0.017578125,0.917236328
-0.038490295,-0.129989624,0.008934021,0.008789063,-0.009277344,0.918212891
0.144615173,-0.023178101,0.008934021,0.000488281,-0.011474609,0.918212891
-0.069007874,-0.053695679,-0.006324768,-0.000244141,-0.015380859,0.915527344
0.037803650,0.114151001,-0.036842346,0.002929688,-0.013671875,0.920898438
-0.130043030,0.022598267,-0.128395081,0.000976563,-0.011230469,0.918945313
-0.114784241,-0.129989624,0.039451599,0.003417969,-0.012207031,0.919433594
-0.023231506,0.007339478,0.054710388,-0.002929688,-0.008789063,0.916259766
-0.038490295,-0.191024780,-0.021583557,0.004394531,-0.015380859,0.918457031
0.083580017,-0.007919312,-0.296241760,0.007324219,-0.014892578,0.916503906
0.007286072,-0.129989624,0.008934021,0.006347656,-0.008300781,0.913574219
-0.053749084,0.205703735,0.039451599,0.010498047,-0.008056641,0.919677734
-0.053749084,-0.007919312,-0.158912659,0.003417969,-0.014404297,0.914794922
0.022544861,-0.007919312,-0.006324768,0.000488281,-0.020751953,0.920166016
-0.114784241,-0.084213257,0.039451599,0.003173828,-0.010986328,0.923583984
-0.084266663,0.053115845,-0.097877502,0.004394531,-0.012695313,0.911376953
-0.084266663,-0.145248413,-0.143653870,0.001953125,-0.015625000,0.914306641
-0.145301819,0.083633423,0.008934021,0.004882813,-0.010742188,0.923583984
0.114097595,-0.160507202,0.024192810,0.008544922,-0.009765625,0.908935547
0.159873962,-0.084213257,0.039451599,-0.000732422,-0.014160156,0.917480469
0.007286072,0.007339478,-0.128395081,0.003173828,-0.020996094,0.919189453
-0.023231506,0.129409790,0.069969177,-0.000488281,-0.013183594,0.914550781
0.251426697,0.007339478,0.039451599,0.012939453,-0.021484375,0.922851563
-0.175819397,0.190444946,-0.036842346,0.006591797,-0.012939453,0.916015625
0.053062439,-0.023178101,0.069969177,0.000000000,-0.010009766,0.917480469
-0.130043030,0.159927368,0.161521912,0.004394531,-0.011230469,0.924804688
-0.007972717,-0.129989624,0.146263123,0.003662109,-0.013183594,0.919921875
-0.084266663,0.098892212,0.131004333,0.007812500,-0.010009766,0.918701172
0.312461853,0.037857056,0.176780701,0.003662109,-0.013183594,0.916015625
-0.038490295,-0.129989624,-0.219947815,0.004150391,-0.015869141,0.919433594
0.037803650,-0.053695679,0.054710388,0.000244141,-0.013671875,0.911621094
-0.007972717,0.068374634,0.024192810,0.013427734,-0.014648438,0.916503906
0.114097595,-0.084213257,0.024192810,0.001953125,-0.007812500,0.915771484
-0.038490295,-0.023178101,-0.006324768,0.003173828,-0.011718750,0.916748047
-0.084266663,-0.099472046,0.024192810,0.008056641,-0.012207031,0.909667969
-0.130043030,0.114151001,-0.113136292,-0.000732422,-0.012695313,0.921142578
0.159873962,0.114151001,0.085227966,0.005126953,-0.010498047,0.915527344
0.083580017,0.007339478,0.085227966,0.001708984,-0.013671875,0.905273438
0.114097595,0.068374634,0.161521912,0.004882813,-0.015625000,0.915039063
-0.053749084,-0.007919312,0.085227966,0.008056641,-0.011718750,0.918212891
-0.114784241,-0.099472046,-0.067359924,-0.002441406,-0.010009766,0.919189453
-0.114784241,0.022598267,0.069969177,0.003417969,-0.010253906,0.903808594
0.022544861,-0.099472046,-0.082618713,0.005371094,-0.012939453,0.903808594
-0.114784241,0.114151001,0.054710388,0.007080078,-0.018310547,0.923339844
0.007286072,0.007339478,-0.052101135,-0.001953125,-0.012695313,0.912597656
0.220909119,0.053115845,-0.113136292,0.006103516,-0.007812500,0.905517578
-0.130043030,0.068374634,0.054710388,0.005126953,-0.011962891,0.910156250
0.022544861,0.022598267,0.008934021,0.007812500,-0.013671875,0.918945313
-0.114784241,0.114151001,0.192039490,-0.000732422,-0.011718750,0.909179688
0.083580017,-0.114730835,-0.097877502,0.006347656,-0.013427734,0.921386719
0.159873962,0.114151001,-0.021583557,0.001220703,-0.016601563,0.917724609
-0.007972717,-0.038436890,0.054710388,0.006591797,-0.012451172,0.917480469
0.114097595,-0.099472046,0.039451599,0.001708984,-0.013427734,0.913085938
0.205650330,-0.099472046,-0.097877502,0.003417969,-0.011718750,0.915039063
0.129356384,-0.099472046,-0.052101135,0.003417969,-0.007568359,0.912109375
0.022544861,-0.023178101,0.069969177,-0.002441406,-0.010742188,0.920410156
0.037803650,-0.007919312,-0.097877502,0.002197266,-0.012451172,0.906982422
0.098838806,0.068374634,-0.082618713,0.005859375,-0.013183594,0.914062500
0.129356384,-0.175765991,-0.067359924,0.003173828,-0.015136719,0.921386719
-0.038490295,0.175186157,0.069969177,0.005615234,-0.011718750,0.911621094
-0.038490295,-0.038436890,-0.036842346,0.010009766,-0.017578125,0.902587891
-0.069007874,-0.068954468,-0.082618713,0.000488281,-0.013671875,0.909667969
-0.038490295,-0.114730835,-0.006324768,0.004394531,-0.011962891,0.918701172
0.083580017,0.083633423,-0.052101135,0.010498047,-0.010498047,0.913330078
0.083580017,0.068374634,-0.143653870,0.003417969,-0.018554688,0.909667969
0.068321228,0.053115845,-0.021583557,0.003173828,-0.013671875,0.906005859
-0.114784241,-0.038436890,0.039451599,0.001953125,-0.013671875,0.912841797
0.175132751,0.022598267,-0.082618713,0.009521484,-0.007812500,0.906982422
0.083580017,0.083633423,-0.021583557,0.000488281,-0.010986328,0.914794922
0.007286072,-0.053695679,-0.067359924,0.003662109,-0.012207031,0.915771484
-0.130043030,0.144668579,0.100486755,-0.000488281,-0.013183594,0.915771484
0.068321228,-0.068954468,-0.082618713,0.004882813,-0.013427734,0.918457031
0.098838806,-0.084213257,-0.097877502,0.004882813,-0.008544922,0.912353516
0.022544861,0.007339478,-0.006324768,0.007080078,-0.014892578,0.911865234
-0.038490295,-0.053695679,-0.021583557,0.005859375,-0.022216797,0.910644531
0.068321228,0.022598267,-0.036842346,0.007080078,-0.011718750,0.918945313
-0.053749084,-0.053695679,0.069969177,0.005126953,-0.008056641,0.910644531
-0.084266663,-0.145248413,-0.158912659,0.006347656,-0.014160156,0.918945313
-0.053749084,0.037857056,-0.097877502,-0.000732422,-0.014648438,0.919677734
0.144615173,-0.267318726,-0.021583557,0.002441406,-0.006103516,0.913574219
-0.099525452,0.068374634,0.069969177,0.004394531,-0.010498047,0.911376953
-0.038490295,0.037857056,-0.113136292,0.004150391,-0.007568359,0.916992188
0.068321228,0.129409790,0.054710388,0.000488281,-0.012939453,0.906494141
-0.053749084,-0.053695679,-0.128395081,-0.002441406,-0.006591797,0.907470703
0.068321228,0.007339478,-0.128395081,0.006835938,-0.014160156,0.915283203
-0.130043030,-0.175765991,0.008934021,0.003173828,-0.009033203,0.910156250
0.037803650,0.037857056,0.039451599,-0.000976563,-0.018066406,0.929931641
-0.160560608,0.220962524,0.039451599,0.006591797,-0.012451172,0.915283203
0.022544861,0.053115845,-0.067359924,0.000488281,-0.013183594,0.919921875
0.098838806,-0.053695679,-0.204689026,0.006103516,-0.013427734,0.921142578
0.098838806,0.022598267,0.131004333,-0.000732422,-0.011474609,0.908447266
0.037803650,0.083633423,0.008934021,0.004150391,-0.013916016,0.908691406
-0.007972717,-0.068954468,-0.006324768,-0.000244141,-0.010498047,0.911132813
0.007286072,-0.160507202,0.008934021,0.000244141,-0.009033203,0.916992188
-0.053749084,0.159927368,-0.036842346,-0.002441406,-0.015380859,0.907226563
0.022544861,0.190444946,-0.097877502,0.004882813,-0.014648438,0.916992188
0.068321228,-0.007919312,0.024192810,0.000976563,-0.006591797,0.909667969
-0.099525452,0.007339478,0.054710388,0.003173828,-0.010986328,0.915039063
-0.084266663,-0.129989624,-0.082618713,0.000976563,-0.006835938,0.914550781
0.007286072,0.205703735,0.024192810,0.006347656,-0.014892578,0.904052734
0.083580017,0.037857056,0.192039490,0.003417969,-0.014648438,0.917968750
-0.099525452,0.144668579,-0.067359924,0.007080078,-0.008056641,0.910400391
-0.038490295,-0.068954468,-0.082618713,0.006591797,-0.015136719,0.927734375
-0.069007874,-0.068954468,0.069969177,0.004150391,-0.015869141,0.917236328
0.022544861,0.053115845,0.161521912,0.008056641,-0.015380859,0.917480469
0.037803650,0.037857056,-0.021583557,0.004638672,-0.010009766,0.910644531
0.220909119,0.205703735,-0.067359924,0.000244141,-0.007812500,0.914062500
-0.023231506,0.205703735,0.192039490,0.004394531,-0.013916016,0.915771484
-0.038490295,-0.129989624,-0.021583557,-0.003173828,-0.012695313,0.913330078
-0.038490295,0.083633423,-0.143653870,0.004882813,-0.009033203,0.917480469
-0.007972717,0.022598267,0.024192810,0.000976563,-0.008056641,0.918457031
-0.023231506,0.007339478,-0.036842346,0.004150391,-0.011962891,0.918945313
-0.069007874,-0.023178101,-0.021583557,-0.001220703,-0.015380859,0.915527344
0.022544861,-0.068954468,0.069969177,0.000000000,-0.011718750,0.924316406
-0.023231506,-0.084213257,-0.021583557,0.000732422,-0.011230469,0.916015625
-0.069007874,-0.053695679,-0.143653870,0.005859375,-0.014404297,0.905517578
0.098838806,0.007339478,-0.021583557,-0.000732422,-0.010986328,0.917236328
-0.252113342,-0.053695679,-0.067359924,0.005371094,-0.009765625,0.911865234
-0.130043030,-0.084213257,0.176780701,0.002197266,-0.015136719,0.922607422
0.129356384,-0.068954468,0.131004333,-0.003173828,-0.010742188,0.925537109
-0.038490295,-0.068954468,-0.036842346,0.006347656,-0.007568359,0.914306641
0.007286072,-0.068954468,-0.036842346,0.000000000,-0.008789063,0.922851563
0.037803650,0.068374634,-0.052101135,-0.000244141,-0.019287109,0.915039063
-0.053749084,-0.068954468,0.039451599,0.011718750,-0.012207031,0.921630859
-0.023231506,0.037857056,-0.021583557,-0.001220703,-0.006835938,0.911621094
0.053062439,0.114151001,-0.113136292,0.009033203,-0.012939453,0.917480469
-0.038490295,-0.099472046,-0.174171448,0.004638672,-0.016113281,0.919189453
-0.023231506,-0.007919312,-0.006324768,0.005126953,-0.014160156,0.922607422
0.159873962,-0.099472046,-0.067359924,0.009033203,-0.017578125,0.919921875
-0.038490295,0.098892212,0.146263123,0.004638672,-0.010253906,0.915771484
0.129356384,-0.023178101,-0.082618713,0.010009766,-0.013183594,0.914306641
0.114097595,0.053115845,-0.006324768,0.006347656,-0.011962891,0.916992188
-0.069007874,-0.145248413,-0.021583557,0.005615234,-0.010986328,0.913818359
-0.038490295,0.114151001,-0.067359924,0.004150391,-0.011962891,0.916015625
0.129356384,-0.129989624,0.146263123,0.005615234,-0.011962891,0.912841797
-0.023231506,-0.007919312,0.008934021,0.010986328,-0.012939453,0.912353516
0.022544861,0.022598267,-0.006324768,0.011230469,-0.016357422,0.910644531
-0.084266663,-0.007919312,0.176780701,0.002197266,-0.012207031,0.914062500
0.037803650,0.007339478,-0.052101135,0.000488281,-0.004882813,0.916992188
-0.069007874,-0.038436890,0.115745544,0.002441406,-0.005371094,0.921875000
0.068321228,-0.038436890,0.069969177,0.009521484,-0.013916016,0.909912109
0.083580017,-0.038436890,-0.082618713,0.002441406,-0.009277344,0.911621094
0.007286072,-0.129989624,-0.021583557,0.004394531,-0.013427734,0.920898438
0.022544861,0.022598267,-0.158912659,0.002441406,-0.014160156,0.923828125
-0.038490295,0.098892212,0.069969177,0.007812500,-0.014160156,0.914062500
-0.099525452,-0.023178101,-0.052101135,0.000488281,-0.010742188,0.916259766
-0.099525452,0.007339478,0.069969177,0.001708984,-0.012451172,0.913085938
-0.069007874,-0.084213257,0.085227966,0.001953125,-0.014892578,0.912109375
0.098838806,-0.114730835,-0.036842346,0.002197266,-0.013916016,0.914062500
-0.099525452,-0.068954468,-0.021583557,0.001464844,-0.006347656,0.912109375
0.129356384,-0.129989624,0.008934021,0.005371094,-0.015625000,0.914794922
-0.053749084,0.098892212,-0.097877502,0.004394531,-0.013671875,0.914306641
0.068321228,-0.099472046,0.115745544,0.004638672,-0.013916016,0.923828125
0.205650330,-0.038436890,-0.082618713,0.005371094,-0.017578125,0.914306641
-0.023231506,0.129409790,-0.036842346,0.005371094,-0.011230469,0.917724609
0.083580017,0.114151001,0.161521912,0.006103516,-0.016113281,0.913085938
-0.007972717,-0.221542358,-0.006324768,0.000244141,-0.009765625,0.911132813
0.037803650,-0.084213257,0.039451599,0.005126953,-0.009765625,0.907226563
-0.038490295,0.098892212,0.008934021,0.003173828,-0.013183594,0.920166016
-0.069007874,-0.175765991,0.024192810,0.009033203,-0.013916016,0.912109375
-0.023231506,-0.068954468,-0.021583557,0.002441406,-0.006103516,0.912353516
-0.069007874,0.053115845,0.085227966,0.004150391,-0.011718750,0.916259766
-0.069007874,0.068374634,-0.006324768,0.002441406,-0.008544922,0.913574219
0.205650330,-0.114730835,0.069969177,0.006591797,-0.011230469,0.916015625
-0.267372131,-0.160507202,-0.036842346,0.002685547,-0.012939453,0.910644531
0.053062439,0.129409790,-0.067359924,0.005859375,-0.009521484,0.912353516
-0.130043030,0.083633423,0.054710388,0.007080078,-0.009521484,0.912841797
0.190391541,-0.084213257,0.192039490,0.002929688,-0.012451172,0.925781250
-0.084266663,0.037857056,-0.052101135,0.008056641,-0.017089844,0.913085938
0.037803650,0.175186157,0.008934021,0.002197266,-0.013427734,0.915527344
-0.053749084,-0.023178101,-0.021583557,0.006591797,-0.014404297,0.913085938
-0.069007874,-0.023178101,0.054710388,0.005859375,-0.012939453,0.918945313
0.053062439,-0.145248413,0.054710388,0.008300781,-0.014648438,0.911621094
0.190391541,-0.129989624,-0.021583557,0.007324219,-0.015380859,0.925292969
0.068321228,-0.038436890,0.008934021,0.009277344,-0.012939453,0.918945313
0.083580017,0.022598267,-0.082618713,0.005126953,-0.013183594,0.919433594
0.068321228,-0.145248413,0.054710388,0.001953125,-0.012939453,0.913085938
0.022544861,-0.068954468,0.069969177,0.005859375,-0.015380859,0.917724609
0.022517204,-0.023178101,0.085227966,-0.001220703,-0.011230469,0.924072266
0.053062439,0.022598267,0.161521912,0.008300781,-0.011718750,0.917480469
0.205650330,-0.099472046,-0.052101135,0.001708984,-0.013427734,0.902343750
0.053062439,-0.099472046,-0.158912659,0.003662109,-0.012939453,0.912109375
0.114097595,0.022598267,-0.006324768,0.002197266,-0.010009766,0.913330078
0.007286072,0.037857056,0.085227966,0.008789063,-0.012207031,0.921386719
0.114097595,-0.114730835,-0.036842346,0.003906250,-0.008544922,0.915527344
0.068321228,-0.038436890,-0.082618713,0.000000000,-0.011962891,0.909423828
-0.023231506,-0.038436890,-0.067359924,-0.001708984,-0.013916016,0.911132813
-0.038490295,0.068374634,0.085227966,0.006835938,-0.013671875,0.917236328
0.083580017,-0.175765991,-0.021583557,0.001708984,-0.011962891,0.916259766
-0.023231506,0.007339478,-0.036842346,0.006835938,-0.009765625,0.925048828
-0.038490295,-0.007919312,0.069969177,0.009277344,-0.014160156,0.920166016
0.037803650,0.098892212,0.100486755,0.005371094,-0.015869141,0.919433594
0.068321228,0.007339478,0.100486755,0.005126953,-0.005615234,0.915039063
0.037803650,0.129409790,-0.097877502,0.003417969,-0.007568359,0.914062500
-0.145301819,-0.007919312,0.115745544,0.007324219,-0.009033203,0.924560547
-0.007972717,-0.038436890,-0.082618713,0.000244141,-0.018798828,0.909179688
-0.084266663,0.205703735,-0.128395081,0.008300781,-0.008300781,0.906982422
0.037803650,-0.053695679,-0.067359924,0.010009766,-0.014160156,0.917480469
0.068321228,-0.038436890,0.054710388,0.002929688,-0.014404297,0.916992188
-0.130043030,0.175186157,-0.006324768,0.001708984,-0.014892578,0.915039063
-0.084266663,-0.114730835,-0.067359924,0.006835938,-0.010253906,0.913574219
-0.023231506,-0.023178101,-0.006324768,0.000732422,-0.010986328,0.918701172
0.022544861,-0.007919312,-0.036842346,0.004638672,-0.014648438,0.915039063
-0.038490295,0.037857056,-0.021583557,0.000732422,-0.011474609,0.914550781
-0.160560608,0.022598267,-0.082618713,0.003173828,-0.014404297,0.915039063
0.098838806,-0.099472046,0.115745544,0.005859375,-0.011718750,0.910888672
0.068321228,0.129409790,0.039451599,0.007568359,-0.011718750,0.915039063
-0.023231506,0.053115845,0.069969177,0.004638672,-0.010009766,0.921875000
0.083580017,0.053115845,0.039451599,0.002685547,-0.014404297,0.913574219
-0.114784241,-0.007919312,-0.097877502,0.004638672,-0.006591797,0.917480469
0.007286072,0.083633423,0.131004333,0.005371094,-0.009521484,0.922363281
0.083580017,0.007339478,-0.021583557,-0.001464844,-0.009765625,0.911621094
-0.069007874,0.083633423,0.054710388,0.008056641,-0.010253906,0.916748047
-0.145301819,0.022598267,-0.082618713,0.003906250,-0.012207031,0.908203125
0.098838806,0.037857056,-0.006324768,0.004150391,-0.011718750,0.917480469
-0.007972717,0.007339478,0.024192810,0.006835938,-0.011962891,0.920898438
-0.023231506,-0.068954468,0.024192810,0.010498047,-0.007324219,0.923828125
-0.038490295,-0.007919312,0.085227966,0.005126953,-0.011718750,0.917236328
0.129356384,-0.129989624,0.085227966,0.006347656,-0.021240234,0.909179688
0.068321228,-0.129989624,-0.006324768,0.000732422,-0.008056641,0.918945313
-0.038490295,0.190444946,0.024192810,0.004638672,-0.012451172,0.919677734
-0.038490295,0.098892212,0.085227966,0.007080078,-0.011718750,0.915283203
-0.053749084,0.007339478,0.054710388,0.004150391,-0.011962891,0.916503906
0.159873962,-0.114730835,-0.052101135,0.001953125,-0.014160156,0.921142578
-0.130043030,-0.023178101,-0.021583557,0.007324219,-0.012451172,0.915039063
0.114097595,-0.099472046,-0.006324768,0.004394531,-0.007812500,0.920410156
-0.053749084,0.144668579,0.085227966,0.003417969,-0.015869141,0.909423828
-0.130043030,-0.084213257,-0.052101135,0.002929688,-0.012939453,0.915771484
0.190391541,-0.053695679,0.085227966,0.001464844,-0.010253906,0.918457031
-0.023231506,0.068374634,0.008934021,0.001953125,-0.013671875,0.915283203
0.053062439,-0.038436890,0.008934021,0.005126953,-0.010009766,0.916748047
0.007286072,0.083633423,0.115745544,0.002929688,-0.014648438,0.916503906
0.266685486,-0.053695679,-0.082618713,0.002197266,-0.012451172,0.911376953
-0.023231506,-0.023178101,0.039451599,0.002197266,-0.016357422,0.919677734
-0.007972717,-0.053695679,0.100486755,0.006347656,-0.013671875,0.915039063
-0.084266663,0.007339478,-0.052101135,0.006591797,-0.009277344,0.916015625
-0.221595764,0.068374634,-0.021583557,0.005615234,-0.012939453,0.909179688
0.053062439,-0.068954468,0.008934021,0.007568359,-0.013183594,0.915039063
-0.023231506,0.007339478,0.054710388,0.007324219,-0.009765625,0.913818359
0.037803650,0.083633423,-0.036842346,-0.001708984,-0.007324219,0.911132813
-0.069007874,0.220962524,0.054710388,0.008056641,-0.014160156,0.916503906
-0.099525452,-0.068954468,-0.006324768,0.005615234,-0.008056641,0.912841797
-0.084266663,-0.129989624,0.069969177,0.003906250,-0.012695313,0.905029297
-0.038490295,0.037857056,0.054710388,0.001464844,-0.011474609,0.914550781
0.007286072,0.053115845,-0.052101135,0.005615234,-0.014404297,0.915527344
-0.160560608,0.053115845,0.008934021,0.004638672,-0.014648438,0.908447266
0.007286072,0.037857056,-0.143653870,0.003906250,-0.015869141,0.913330078
-0.206336975,0.053115845,-0.006324768,0.005126953,-0.010253906,0.917968750
-0.038490295,0.037857056,-0.036842346,0.004882813,-0.013183594,0.911376953
0.159873962,0.022598267,0.176780701,0.003906250,-0.014404297,0.921142578
-0.145301819,-0.084213257,-0.021583557,0.010253906,-0.013183594,0.917236328
-0.084266663,-0.175765991,0.054710388,0.003662109,-0.007324219,0.913818359
0.159873962,0.068374634,-0.143653870,-0.002197266,-0.016113281,0.917236328
0.068321228,-0.236801147,0.039451599,0.002441406,-0.011474609,0.921875000
-0.114784241,0.053115845,0.131004333,-0.000244141,-0.007812500,0.911865234
-0.069007874,-0.068954468,0.069969177,0.003417969,-0.012939453,0.907226563
0.037803650,-0.084213257,-0.082618713,0.006103516,-0.016845703,0.917236328
-0.114784241,-0.084213257,-0.067359924,0.000488281,-0.015380859,0.913330078
-0.160560608,-0.099472046,0.054710388,0.004882813,-0.012939453,0.915039063
0.022544861,0.205703735,0.100486755,0.008789063,-0.016601563,0.921630859
0.068321228,-0.053695679,-0.158912659,0.004882813,-0.010742188,0.918945313
0.007286072,0.129409790,-0.158912659,0.001708984,-0.009277344,0.913574219
0.007286072,0.083633423,-0.158912659,0.005859375,-0.013183594,0.915283203
0.053062439,-0.038436890,-0.097877502,0.014160156,-0.008544922,0.915527344
-0.023231506,-0.023178101,-0.235206604,-0.000488281,-0.012451172,0.913574219
-0.023231506,-0.160507202,-0.143653870,0.004150391,-0.014404297,0.911865234
-0.069007874,0.068374634,-0.006324768,0.003173828,-0.016357422,0.918457031
0.053062439,0.022598267,0.131004333,0.001220703,-0.016845703,0.916748047
0.083580017,0.068374634,0.131004333,0.003662109,-0.007568359,0.916992188
-0.130043030,-0.023178101,0.115745544,0.006103516,-0.010498047,0.909912109
-0.038490295,0.098892212,0.100486755,-0.002197266,-0.012207031,0.921142578
-0.130043030,0.037857056,-0.174171448,0.001708984,-0.011962891,0.913818359
0.007286072,-0.114730835,0.085227966,0.004882813,-0.017822266,0.922851563
0.037803650,-0.068954468,-0.067359924,0.001464844,-0.009765625,0.907714844
0.175132751,0.068374634,-0.174171448,0.004394531,-0.013427734,0.930175781
-0.069007874,-0.053695679,0.024192810,0.000976563,-0.012695313,0.916992188
0.129356384,-0.084213257,0.024192810,0.008789063,-0.013916016,0.916992188
-0.053749084,0.022598267,0.069969177,0.000488281,-0.017089844,0.919677734
0.053062439,0.037857056,0.085227966,-0.002929688,-0.014892578,0.928466797
0.159873962,0.053115845,0.054710388,0.009033203,-0.009277344,0.916503906
0.175132751,-0.038436890,-0.052101135,0.004638672,-0.015380859,0.911621094
-0.053749084,-0.023178101,0.024192810,0.003173828,-0.017578125,0.916992188
0.098838806,-0.129989624,-0.021583557,0.006103516,-0.012939453,0.914306641
0.053062439,-0.129989624,0.008934021,0.001953125,-0.008300781,0.918701172
0.083580017,0.098892212,0.176780701,-0.000976563,-0.009033203,0.922851563
-0.038490295,0.053115845,-0.143653870,0.008789063,-0.012939453,0.912597656
0.022544861,0.159927368,0.054710388,-0.001708984,-0.010986328,0.918212891
0.037803650,-0.038436890,0.131004333,-0.000976563,-0.012207031,0.916015625
0.053062439,0.037857056,0.192039490,0.001464844,-0.014160156,0.916503906
0.037803650,-0.023178101,0.008934021,0.012207031,-0.017089844,0.916015625
0.098838806,-0.114730835,0.100486755,-0.002441406,-0.011718750,0.908691406
-0.007972717,0.068374634,-0.082618713,-0.000976563,-0.003906250,0.909423828
0.022544861,-0.053695679,-0.036842346,0.005371094,-0.016357422,0.908447266
-0.069007874,-0.038436890,-0.021583557,0.003173828,-0.010742188,0.928466797
-0.069007874,-0.114730835,0.024192810,0.000732422,-0.017578125,0.915039063
0.022544861,-0.053695679,0.039451599,0.000488281,-0.013427734,0.914062500
-0.038490295,0.068374634,0.115745544,0.005126953,-0.012695313,0.907958984
-0.099525452,-0.007919312,-0.036842346,-0.001220703,-0.012207031,0.912109375
-0.084266663,-0.114730835,-0.067359924,0.002685547,-0.017822266,0.911132813
0.022544861,-0.023178101,0.100486755,-0.000244141,-0.010742188,0.918212891
-0.114784241,0.068374634,0.161521912,0.008544922,-0.005615234,0.916259766
0.007286072,-0.023178101,0.161521912,0.001708984,-0.010009766,0.917724609
0.083580017,-0.007919312,0.085227966,0.006347656,-0.015380859,0.906738281
-0.114784241,0.053115845,0.131004333,0.004638672,-0.006591797,0.918701172
0.022544861,0.037857056,-0.021583557,0.004150391,-0.014404297,0.912597656
-0.053749084,-0.023178101,0.161521912,0.001220703,-0.014648438,0.917968750
-0.023231506,-0.023178101,0.054710388,0.001464844,-0.007812500,0.906250000
0.068321228,-0.129989624,0.024192810,0.004638672,-0.012695313,0.920898438
-0.038490295,0.251480103,-0.021583557,0.006835938,-0.015869141,0.919433594
-0.084266663,0.007339478,-0.143653870,0.000488281,-0.010009766,0.911132813
0.083580017,-0.099472046,0.161521912,0.008789063,-0.018066406,0.907958984
0.144615173,0.068374634,0.039451599,-0.001953125,-0.014404297,0.914062500
0.098838806,0.022598267,-0.082618713,0.002197266,-0.010742188,0.924072266
0.053062439,0.098892212,-0.036842346,0.005615234,-0.013427734,0.912353516
0.083580017,-0.007919312,-0.006324768,0.005126953,-0.010742188,0.915527344
-0.145301819,-0.175765991,-0.067359924,0.001220703,-0.022949219,0.920898438
-0.038490295,-0.114730835,0.054710388,0.007568359,-0.016357422,0.917968750
-0.038490295,-0.114730835,-0.036842346,0.006835938,-0.011718750,0.916015625
0.114097595,-0.084213257,-0.082618713,0.001464844,-0.010742188,0.913818359
0.022544861,-0.129989624,-0.006324768,0.005126953,-0.013916016,0.910156250
0.007286072,-0.053695679,-0.021583557,0.003173828,-0.012207031,0.915039063
-0.038490295,-0.068954468,-0.036842346,0.003662109,-0.017089844,0.913574219
0.022544861,-0.053695679,-0.128395081,-0.000488281,-0.015625000,0.926513672
0.053062439,-0.099472046,0.039451599,0.001464844,-0.012451172,0.918945313
0.114097595,0.037857056,0.008934021,0.005371094,-0.006103516,0.919677734
-0.038490295,0.083633423,0.100486755,0.005126953,-0.013427734,0.919189453
-0.084266663,-0.038436890,0.039451599,0.000732422,-0.006591797,0.912353516
0.022544861,0.159927368,0.008934021,0.004882813,-0.009277344,0.914550781
0.022544861,0.037857056,0.131004333,0.005126953,-0.013183594,0.910400391
0.037803650,-0.023178101,0.054710388,0.007568359,-0.013183594,0.912841797
-0.053749084,-0.145248413,0.039451599,0.002929688,-0.011718750,0.923339844
0.022544861,0.037857056,-0.097877502,0.002197266,-0.013671875,0.912597656
-0.160560608,0.205703735,0.115745544,0.011474609,-0.009277344,0.921142578
-0.053749084,0.007339478,0.085227966,0.000488281,-0.016601563,0.914794922
0.144615173,0.114151001,0.085227966,0.004150391,-0.014404297,0.915039063
0.053062439,-0.068954468,0.039451599,0.005615234,-0.013183594,0.914062500
-0.023231506,-0.129989624,-0.082618713,0.003662109,-0.010253906,0.914306641
0.037803650,-0.053695679,-0.143653870,0.004394531,-0.011230469,0.916748047
0.159873962,-0.099472046,0.024192810,0.005371094,-0.015136719,0.912597656
-0.007972717,0.053115845,-0.006324768,0.003662109,-0.012207031,0.915771484
0.053062439,0.007339478,-0.082618713,0.001220703,-0.011962891,0.916503906
0.022544861,-0.099472046,-0.006324768,0.000244141,-0.014160156,0.919189453
0.129356384,-0.114730835,0.024192810,0.011230469,-0.011718750,0.906982422
0.098838806,-0.114730835,-0.021583557,-0.001220703,-0.014160156,0.910156250
0.098838806,0.037857056,0.100486755,0.005615234,-0.009765625,0.920898438
-0.023231506,0.007339478,-0.006324768,0.005371094,-0.008056641,0.920410156
0.068321228,0.007339478,0.115745544,0.009765625,-0.016357422,0.913574219
-0.099525452,0.144668579,-0.021583557,0.002685547,-0.013183594,0.912353516
-0.053749084,0.114151001,-0.021583557,0.005371094,-0.015380859,0.913574219
-0.023231506,-0.145248413,0.192039490,0.006347656,-0.012695313,0.909667969
0.037803650,0.129409790,0.054710388,0.003173828,-0.012207031,0.912353516
0.053062439,0.083633423,0.039451599,-0.002197266,-0.014648438,0.910644531
0.022544861,-0.160507202,0.008934021,0.009277344,-0.015869141,0.910644531
0.022544861,-0.068954468,-0.052101135,0.007324219,-0.009277344,0.906982422
0.068321228,-0.038436890,-0.067359924,0.004394531,-0.014892578,0.914062500
-0.038490295,-0.160507202,0.237815857,0.006103516,-0.010742188,0.918212891
0.037803650,0.037857056,0.069969177,0.002441406,-0.008300781,0.915527344
0.053062439,0.037857056,0.085227966,0.004394531,-0.018066406,0.923828125
0.037803650,-0.007919312,0.161521912,0.003417969,-0.014404297,0.922363281
-0.023231506,0.068374634,0.008934021,0.000488281,-0.013183594,0.907470703
-0.114784241,0.205703735,-0.067359924,0.001953125,-0.014404297,0.924072266
-0.099525452,0.068374634,-0.052101135,0.002441406,-0.014404297,0.908447266
-0.069007874,0.022598267,-0.143653870,0.003173828,-0.016113281,0.911132813
-0.007972717,-0.007919312,-0.021583557,0.007568359,-0.013427734,0.914062500
-0.038490295,-0.053695679,0.054710388,0.001464844,-0.009765625,0.916503906
0.098838806,-0.053695679,-0.174171448,0.003417969,-0.017333984,0.916748047
0.083580017,-0.191024780,-0.113136292,0.002441406,-0.008056641,0.915771484
-0.099525452,0.068374634,0.021583557,0.005126953,-0.010009766,0.917480469
0.083580017,-0.053695679,0.054710388,0.004882813,-0.010986328,0.918945313
0.068321228,0.175186157,0.192039490,0.003662109,-0.009277344,0.912597656
0.022544861,0.022598267,-0.097877502,0.013427734,-0.008056641,0.916748047
0.068321228,0.083633423,0.039451599,0.003662109,-0.017089844,0.919189453
0.159873962,0.068374634,-0.052101135,0.001220703,-0.009277344,0.920898438
0.007286072,-0.191024780,-0.006324768,0.006591797,-0.012451172,0.911132813
0.068321228,-0.160507202,-0.036842346,-0.000976563,-0.015869141,0.907958984
0.053062439,-0.023178101,0.100486755,0.004394531,-0.015136719,0.907958984
0.037803650,0.053115845,0.039451599,0.004638672,-0.016113281,0.916259766
0.083580017,-0.145248413,-0.006324768,0.003662109,-0.013427734,0.910888672
0.205650330,0.007339478,-0.052101135,0.000732422,-0.008544922,0.923828125
-0.023231506,-0.221542358,0.039451599,0.000000000,-0.006103516,0.913574219
-0.023231506,-0.191024780,-0.128395081,0.003906250,-0.016845703,0.921875000
0.083580017,-0.068954468,0.039451599,0.002685547,-0.017822266,0.911865234
0.037803650,0.022598267,-0.036842346,0.001464844,-0.011962891,0.914794922
-0.007972717,0.022598267,0.146263123,0.008789063,-0.012939453,0.920898438
-0.099525452,-0.160507202,-0.128395081,0.000488281,-0.010742188,0.915771484
-0.038490295,0.007339478,-0.143653870,0.004638672,-0.010986328,0.914794922
-0.023231506,0.114151001,0.024192810,0.013427734,-0.009277344,0.916748047
-0.130043030,0.144668579,0.024192810,0.003417969,-0.011230469,0.917968750
-0.038490295,0.068374634,0.024192810,0.000976563,-0.010253906,0.919433594
-0.099525452,0.007339478,-0.021583557,0.000732422,-0.012207031,0.908691406
-0.069007874,0.068374634,0.069969177,-0.001953125,-0.009521484,0.914794922
0.098838806,-0.160507202,0.054710388,0.000488281,-0.012451172,0.916992188
-0.053749084,0.022598267,0.069969177,0.007812500,-0.009765625,0.910644531
0.129356384,-0.084213257,0.115745544,0.004882813,-0.010009766,0.915527344
-0.069007874,-0.099472046,-0.006324768,0.002197266,-0.014404297,0.910156250
-0.130043030,0.159927368,0.161521912,0.000244141,-0.012695313,0.909179688
0.083580017,0.022598267,-0.097877502,0.009277344,-0.013183594,0.927246094
-0.038490295,0.083633423,0.024192810,0.006835938,-0.007080078,0.913574219
-0.023231506,-0.038436890,0.024192810,-0.003417969,-0.009521484,0.915527344
-0.023231506,0.037857056,0.039451599,-0.000244141,-0.012451172,0.918701172
0.083580017,-0.129989624,-0.052101135,0.000244141,-0.017333984,0.920898438
-0.007972717,-0.129989624,0.024192810,0.004882813,-0.012451172,0.915283203
0.053062439,-0.084213257,-0.113136292,0.001464844,-0.013183594,0.908203125
0.007286072,0.007339478,0.192039490,0.003417969,-0.010742188,0.914550781
0.053062439,0.068374634,-0.021583557,-0.001464844,-0.017333984,0.918212891
-0.007972717,0.022598267,0.039451599,-0.001220703,-0.013671875,0.913574219
0.190391541,-0.023178101,-0.021583557,-0.001464844,-0.014892578,0.902587891
0.114097595,0.129409790,-0.036842346,0.005859375,-0.012695313,0.912353516
-0.023231506,-0.252059937,-0.021583557,0.005859375,-0.012451172,0.915283203
-0.053749084,0.037857056,0.024192810,0.006835938,-0.016601563,0.909179688
0.053062439,0.007339478,0.146263123,0.007324219,-0.014892578,0.916992188
0.007286072,0.053115845,-0.006324768,0.001953125,-0.008300781,0.910888672
-0.160560608,-0.084213257,0.008934021,0.002441406,-0.008789063,0.914062500
-0.007972717,0.022598267,-0.021583557,0.004394531,-0.013183594,0.913085938
-0.069007874,-0.145248413,0.069969177,0.005126953,-0.011474609,0.918212891
-0.023231506,0.007339478,0.131004333,0.006103516,-0.015869141,0.908203125
0.053062439,0.053115845,-0.067359924,0.005371094,-0.012451172,0.904296875
0.068321228,0.068374634,0.054710388,0.002929688,-0.008300781,0.914062500
0.144615173,-0.191024780,0.054710388,0.006591797,-0.009521484,0.919189453
0.037803650,0.037857056,-0.021583557,0.004150391,-0.007324219,0.915771484
0.022544861,-0.053695679,0.008934021,0.004394531,-0.010742188,0.922607422
-0.007972717,0.114151001,0.039451599,0.004150391,-0.016601563,0.923583984
0.098838806,0.159927368,-0.052101135,0.000244141,-0.012207031,0.917480469
0.098838806,-0.099472046,-0.067359924,-0.001464844,-0.011474609,0.913818359
-0.130043030,0.007339478,-0.128395081,0.000488281,-0.010986328,0.910888672
-0.007972717,-0.160507202,-0.006324768,0.004638672,-0.010009766,0.921630859
-0.023231506,-0.084213257,0.008934021,0.001464844,-0.014160156,0.915039063
0.114097595,-0.023178101,-0.006324768,0.000732422,-0.015625000,0.909179688
-0.007972717,-0.007919312,0.161521912,0.007812500,-0.017578125,0.919677734
-0.038490295,0.144668579,0.008934021,0.000732422,-0.016845703,0.919433594
-0.114784241,0.007339478,-0.006324768,0.004394531,-0.016357422,0.912109375
-0.069007874,-0.099472046,0.039451599,0.004150391,-0.011962891,0.917968750
-0.084266663,-0.145248413,0.054710388,0.004882813,-0.012695313,0.917236328
-0.007972717,0.037857056,0.100486755,0.010742188,-0.009033203,0.916503906
0.129356384,-0.007919312,-0.067359924,0.002929688,-0.013427734,0.909912109
-0.007972717,0.068374634,0.008934021,0.005859375,-0.014892578,0.920166016
-0.160560608,0.114151001,-0.067359924,0.003662109,-0.021972656,0.911621094
-0.130043030,0.175186157,-0.006324768,0.001464844,-0.018310547,0.919433594
0.053062439,-0.007919312,0.085227966,0.007324219,-0.012939453,0.914062500
-0.053749084,0.007339478,-0.052101135,0.000732422,-0.008300781,0.917480469
-0.114784241,0.175186157,0.115745544,0.001464844,-0.010986328,0.917480469
0.144615173,0.236221313,0.085227966,0.002929688,-0.016601563,0.919189453
-0.007972717,0.053115845,-0.052101135,-0.001220703,-0.009033203,0.917480469
0.175132751,0.114151001,0.054710388,0.003417969,-0.012695313,0.915527344
-0.023231506,0.144668579,-0.021583557,0.003662109,-0.011474609,0.909423828
0.144615173,-0.023178101,-0.097877502,0.008056641,-0.011718750,0.912109375
0.022544861,0.053115845,0.085227966,0.003906250,-0.012207031,0.916015625
-0.023231506,-0.007919312,-0.036842346,-0.000732422,-0.013427734,0.913574219
-0.130043030,-0.007919312,0.131004333,0.007080078,-0.016601563,0.910888672
-0.007972717,-0.007919312,0.039451599,0.001220703,-0.017089844,0.917724609
-0.023231506,-0.084213257,-0.113136292,0.006347656,-0.012451172,0.914306641
0.098838806,-0.007919312,0.024192810,0.004394531,-0.014892578,0.919921875
0.083580017,0.037857056,0.085227966,0.002197266,-0.016357422,0.916992188
0.144615173,-0.068954468,-0.097877502,0.000000000,-0.007568359,0.914550781
0.190391541,0.022598267,-0.052101135,0.003417969,-0.017578125,0.909179688
-0.007972717,0.022598267,0.039451599,0.002441406,-0.016601563,0.918457031
-0.038490295,0.220962524,0.024192810,-0.000976563,-0.012451172,0.922119141
0.053062439,0.007339478,-0.143653870,0.010498047,-0.017578125,0.914794922
-0.114784241,0.068374634,-0.021583557,0.003173828,-0.015625000,0.910156250
-0.084266663,-0.038436890,0.100486755,0.001708984,-0.013671875,0.924560547
0.114097595,0.053115845,-0.067359924,0.001953125,-0.007812500,0.915527344
0.053062439,0.129409790,-0.097877502,0.010253906,-0.005615234,0.924804688
-0.130043030,0.037857056,-0.021583557,0.007812500,-0.010986328,0.915771484
0.037803650,0.022598267,-0.082618713,0.004150391,-0.011962891,0.906982422
-0.007972717,0.098892212,0.039451599,0.001953125,-0.015625000,0.911865234
-0.099525452,0.037857056,-0.128395081,0.007080078,-0.012451172,0.910400391
0.068321228,0.175186157,0.024192810,0.005859375,-0.017333984,0.924316406
0.053062439,0.022598267,-0.006324768,0.007080078,-0.010009766,0.917968750
-0.007972717,0.159927368,-0.097877502,0.006103516,-0.015380859,0.918457031
-0.145301819,0.007339478,-0.128395081,0.001464844,-0.012451172,0.922119141
0.022544861,0.053115845,0.100486755,0.005859375,-0.010009766,0.919921875
-0.038490295,0.053115845,-0.143653870,0.002929688,-0.014160156,0.908447266
-0.053749084,0.053115845,0.069969177,0.010253906,-0.009765625,0.918945313
-0.038490295,-0.068954468,0.131004333,-0.000244141,-0.015869141,0.927734375
-0.038490295,0.098892212,-0.113136292,0.004394531,-0.014160156,0.919677734
0.022544861,0.220962524,0.024192810,0.002685547,-0.013183594,0.918457031
-0.191078186,-0.129989624,0.039451599,0.006103516,-0.008056641,0.916503906
0.022544861,-0.007919312,-0.082618713,0.005859375,-0.008056641,0.905517578
-0.023231506,-0.038436890,0.115745544,0.002929688,-0.010009766,0.912841797
0.068321228,0.007339478,-0.052101135,0.001464844,-0.012695313,0.917968750
0.022544861,-0.007919312,-0.067359924,0.007568359,-0.011474609,0.910156250
-0.053749084,0.098892212,-0.006324768,0.004882813,-0.016113281,0.921630859
-0.069007874,0.007339478,0.115745544,0.004638672,-0.010498047,0.913818359
-0.069007874,0.037857056,0.024192810,0.005371094,-0.013427734,0.912109375
-0.069007874,0.022598267,0.039451599,0.001220703,-0.007080078,0.911865234
-0.145301819,0.236221313,0.085227966,0.006103516,-0.010009766,0.915527344
0.068321228,-0.007919312,-0.052101135,0.006347656,-0.010498047,0.917480469
-0.099525452,-0.068954468,0.085227966,-0.000976563,-0.015136719,0.916259766
-0.038490295,-0.007919312,-0.036842346,0.001708984,-0.008300781,0.919189453
-0.023231506,-0.023178101,-0.006324768,0.006103516,-0.012695313,0.921875000
-0.069007874,-0.160507202,0.008934021,0.000488281,-0.013183594,0.917724609
0.037803650,-0.129989624,0.024192810,0.001220703,-0.011718750,0.908935547
0.068321228,0.007339478,-0.128395081,0.006103516,-0.013183594,0.913330078
-0.038490295,-0.068954468,-0.082618713,0.003662109,-0.006835938,0.921875000
-0.145301819,-0.114730835,-0.052101135,0.006835938,-0.010986328,0.912841797
-0.053749084,0.053115845,-0.082618713,0.001464844,-0.015380859,0.919433594
-0.023231506,0.129409790,0.085227966,0.002685547,-0.013916016,0.910644531
0.068321228,0.037857056,0.100486755,0.006591797,-0.013183594,0.914062500
-0.007972717,0.129409790,0.054710388,0.007568359,-0.012939453,0.916503906
0.022544861,0.022598267,-0.052101135,0.009765625,-0.012695313,0.917724609
0.175132751,0.129409790,0.237815857,0.004638672,-0.017578125,0.925537109
0.037803650,-0.068954468,0.024192810,-0.000976563,-0.013427734,0.915771484
-0.069007874,0.022598267,0.085227966,0.005371094,-0.009765625,0.911376953
0.236167908,-0.191024780,0.146263123,0.004882813,-0.010986328,0.913330078
-0.007972717,0.159927368,0.039451599,0.007324219,-0.008300781,0.915527344
0.068321228,-0.191024780,-0.036842346,0.004150391,-0.015625000,0.911621094
0.159873962,0.053115845,0.024192810,0.011474609,-0.011962891,0.918701172
-0.038490295,0.083633423,-0.021583557,0.001464844,-0.012451172,0.909667969
0.190391541,-0.053695679,0.069969177,0.011230469,-0.009277344,0.916015625
-0.053749084,0.083633423,-0.082618713,0.001464844,-0.018554688,0.917724609
0.022544861,-0.068954468,-0.021583557,0.003662109,-0.020751953,0.914794922
-0.084266663,0.037857056,-0.113136292,0.000976563,-0.018798828,0.912109375
0.098838806,-0.023178101,-0.082618713,0.011230469,-0.014892578,0.914306641
0.220909119,-0.038436890,-0.097877502,0.003173828,-0.010253906,0.923339844
-0.023231506,-0.023178101,0.100486755,0.000488281,-0.016601563,0.915039063
-0.007972717,0.190444946,0.100486755,0.005371094,-0.014404297,0.922119141
0.022544861,-0.023178101,0.024192810,0.004882813,-0.012695313,0.918945313
-0.114784241,0.007339478,0.039451599,0.008544922,-0.008789063,0.921875000
-0.069007874,0.053115845,0.069969177,0.002929688,-0.009765625,0.904541016
0.129356384,0.098892212,0.039451599,0.003417969,-0.014160156,0.919189453
-0.099525452,0.007339478,0.054710388,-0.000732422,-0.014404297,0.916259766
0.022544861,0.114151001,-0.097877502,0.007568359,-0.007324219,0.922119141
0.022544861,0.144668579,-0.006324768,0.000000000,-0.007324219,0.921630859
0.114097595,0.098892212,-0.067359924,0.003662109,-0.010253906,0.913330078
0.068321228,0.037857056,0.039451599,0.006835938,-0.016357422,0.914062500
0.007286072,-0.007919312,0.039451599,0.005859375,-0.009033203,0.916992188
0.053062439,-0.023178101,-0.052101135,0.001708984,-0.017578125,0.916015625
-0.084266663,-0.023178101,0.161521912,0.005126953,-0.010498047,0.922119141
-0.160560608,-0.007919312,0.024192810,0.001953125,-0.011962891,0.917236328
0.129356384,0.144668579,0.161521912,0.003417969,-0.012939453,0.921386719
-0.038490295,-0.023178101,-0.021583557,0.002685547,-0.012207031,0.907958984
0.114097595,0.129409790,0.131004333,-0.002929688,-0.009521484,0.915527344
0.053062439,-0.114730835,-0.097877502,0.000976563,-0.012695313,0.916503906
0.083580017,0.037857056,-0.158912659,0.001220703,-0.011718750,0.913085938
0.083580017,-0.129989624,0.008934021,0.002441406,-0.010253906,0.908935547
0.053062439,-0.023178101,0.008934021,0.002685547,-0.007324219,0.914062500
-0.038490295,0.053115845,-0.052101135,0.007812500,-0.015380859,0.912109375
-0.099525452,-0.129989624,-0.097877502,0.002685547,-0.008544922,0.913085938
-0.099525452,0.098892212,-0.052101135,0.010009766,-0.012451172,0.905517578
0.098838806,-0.007919312,-0.036842346,0.004150391,-0.013183594,0.911376953
0.037803650,-0.114730835,0.085227966,0.000732422,-0.005859375,0.925048828
0.144615173,0.007339478,-0.006324768,0.004638672,-0.018798828,0.917480469
-0.084266663,0.053115845,0.008934021,0.005371094,-0.011718750,0.917968750
-0.007972717,-0.068954468,-0.006324768,0.004150391,-0.009033203,0.914794922
-0.038490295,0.037857056,0.024192810,0.006103516,-0.007568359,0.908447266
-0.114784241,-0.038436890,0.024192810,0.003662109,-0.014160156,0.921630859
-0.069007874,0.159927368,0.069969177,0.005371094,-0.019042969,0.918945313
-0.191078186,-0.068954468,-0.128395081,0.007568359,-0.010498047,0.920410156
0.007286072,-0.160507202,-0.097877502,-0.000244141,-0.014160156,0.917724609
-0.023231506,0.053115845,0.024192810,0.008789063,-0.017578125,0.911376953
-0.069007874,0.068374634,-0.128395081,-0.001953125,-0.014160156,0.913818359
-0.130043030,-0.068954468,-0.097877502,0.002197266,-0.012695313,0.922119141
-0.084266663,-0.023178101,0.069969177,0.002685547,-0.011474609,0.920898438
0.007286072,-0.068954468,0.008934021,0.002929688,-0.008056641,0.922607422
0.083580017,0.144668579,-0.189430237,0.002197266,-0.015136719,0.908203125
-0.191078186,-0.084213257,-0.082618713,0.003906250,-0.016357422,0.910156250
-0.053749084,0.114151001,0.024192810,0.002197266,-0.012207031,0.922851563
-0.007972717,-0.160507202,0.054710388,0.007324219,-0.019042969,0.915283203
0.083580017,-0.068954468,-0.036842346,0.007812500,-0.009765625,0.913330078
0.098838806,-0.068954468,-0.174171448,0.002685547,-0.012451172,0.916748047
0.129356384,0.083633423,-0.036842346,0.002929688,-0.015625000,0.921386719
0.053062439,-0.023178101,0.192039490,0.009033203,-0.016113281,0.917236328
-0.191078186,0.037857056,-0.036842346,0.001953125,-0.010253906,0.910156250
0.114097595,-0.114730835,0.024192810,0.003906250,-0.016357422,0.918457031
0.007286072,-0.084213257,-0.021583557,0.004882813,-0.004394531,0.913085938
0.053062439,0.114151001,-0.067359924,0.003417969,-0.008056641,0.913085938
-0.084266663,-0.038436890,0.008934021,0.003662109,-0.008789063,0.905029297
0.007286072,-0.206283569,0.115745544,0.009033203,-0.012451172,0.918701172
0.053062439,0.159927368,0.039451599,0.004150391,-0.008789063,0.914550781
-0.130043030,0.068374634,-0.006324768,0.008544922,-0.011718750,0.912597656
0.083580017,-0.053695679,-0.204689026,0.003417969,-0.013427734,0.910400391
-0.023231506,0.068374634,0.054710388,0.000488281,-0.012939453,0.917480469
-0.038490295,-0.068954468,-0.006324768,0.005371094,-0.010253906,0.925292969
-0.114784241,0.114151001,-0.082618713,0.004882813,-0.007568359,0.915283203
-0.038490295,0.083633423,0.085227966,0.006103516,-0.011230469,0.918212891
-0.007972717,-0.084213257,0.100486755,0.003906250,-0.015136719,0.914550781
-0.038490295,0.037857056,-0.082618713,0.003662109,-0.011474609,0.914550781
-0.099525452,0.068374634,0.069969177,0.003662109,-0.010742188,0.913085938
-0.084266663,0.068374634,-0.082618713,0.007812500,-0.012451172,0.913574219
-0.023231506,0.053115845,0.115745544,0.008544922,-0.014160156,0.912109375
0.220909119,-0.053695679,0.054710388,0.004394531,-0.006591797,0.903076172
-0.023231506,0.007339478,0.069969177,0.005859375,-0.012451172,0.914794922
-0.023231506,0.068374634,-0.036842346,-0.000488281,-0.007080078,0.926269531
0.022544861,-0.084213257,-0.113136292,0.009033203,-0.010742188,0.924804688
-0.130043030,0.159927368,-0.006324768,0.007324219,-0.011230469,0.914306641
0.144615173,-0.038436890,0.024192810,0.000732422,-0.015136719,0.916992188
0.037803650,-0.068954468,0.054710388,0.005859375,-0.014648438,0.913574219
0.083580017,-0.038436890,0.008934021,0.001953125,-0.016845703,0.901123047
0.114097595,0.114151001,-0.067359924,0.002441406,-0.004638672,0.920166016
0.159873962,-0.145248413,-0.006324768,0.006103516,-0.010253906,0.921386719
-0.084266663,0.114151001,0.039451599,0.006591797,-0.014160156,0.911132813
0.190391541,-0.145248413,-0.052101135,-0.001953125,-0.013427734,0.922607422
0.053062439,0.083633423,0.039451599,0.005371094,-0.017089844,0.922363281
0.022544861,-0.023178101,0.054710388,0.006103516,-0.012207031,0.915527344
0.068321228,-0.007919312,0.100486755,0.002441406,-0.012695313,0.917236328
0.007286072,0.053115845,-0.067359924,0.008300781,-0.009521484,0.917968750
-0.114784241,0.129409790,-0.006324768,0.002929688,-0.015869141,0.913085938
-0.053749084,-0.023178101,-0.021583557,0.004882813,-0.011230469,0.922607422
-0.007972717,0.068374634,0.085227966,0.001708984,-0.010498047,0.908203125
0.129356384,-0.129989624,-0.036842346,0.001708984,-0.013427734,0.912353516
-0.038490295,-0.084213257,0.100486755,0.000244141,-0.010009766,0.916992188
-0.053749084,0.053115845,0.161521912,0.002197266,-0.017578125,0.919433594
-0.053749084,0.098892212,-0.113136292,0.002929688,-0.015625000,0.919189453
0.144615173,0.053115845,-0.067359924,0.005126953,-0.015625000,0.920898438
-0.069007874,0.083633423,-0.052101135,-0.000976563,-0.015380859,0.918701172
0.007286072,0.053115845,-0.036842346,0.002197266,-0.011718750,0.916992188
0.007286072,0.175186157,-0.067359924,0.001220703,-0.013916016,0.914794922
0.190391541,0.053115845,0.100486755,0.002929688,-0.014892578,0.910888672
0.053062439,-0.084213257,0.069969177,0.000732422,-0.006103516,0.916748047
0.007286072,-0.038436890,-0.067359924,0.007324219,-0.010742188,0.909667969
-0.099525452,0.022598267,-0.067359924,0.009033203,-0.007568359,0.918212891
-0.038490295,0.053695679,0.085227966,-0.000488281,-0.017089844,0.916259766
0.007286072,0.007339478,-0.021583557,0.003173828,-0.010009766,0.913574219
-0.069007874,-0.007919312,-0.189430237,0.005859375,-0.015380859,0.914306641
0.007286072,-0.053695679,0.115745544,-0.000488281,-0.016357422,0.911132813
-0.069007874,-0.099472046,-0.021583557,0.008056641,-0.012939453,0.918212891
0.037803650,-0.007919312,-0.067359924,0.004150391,-0.009033203,0.917236328
-0.069007874,0.068374634,-0.067359924,0.004394531,-0.007812500,0.921875000
0.144615173,0.053115845,0.131004333,0.003173828,-0.012207031,0.918945313
-0.084266663,-0.191024780,-0.235206604,0.001953125,-0.011962891,0.916748047
-0.038490295,0.053115845,-0.143653870,-0.001220703,-0.014892578,0.919433594
